timestamp,attitudeX,attitudeY,attitudeZ,gyroX,gyroY,gyroZ,gravityX,gravityY,gravityZ,accX,accY,accZ
0427134022517,0.5199351801304597,0.12018999862266135,-0.05522973301193613,-0.16532182693481445,-0.13717789947986603,0.024472109973430634,0.10405611246824265,-0.49682387709617615,-0.8615906238555908,0.003470413386821747,-0.00023609399795532227,0.0170290470123291
0427134022538,0.5168107397356612,0.11759819393446026,-0.05414799685831058,-0.15830925107002258,-0.08807262778282166,0.03174861520528793,0.10200431942939758,-0.4941099286079407,-0.8633947372436523,0.0011277198791503906,-0.002828061580657959,0.0237007737159729
0427134022557,0.5142965710316236,0.11580170955307556,-0.05292289357651945,-0.1278301477432251,-0.05314172804355621,0.040840864181518555,0.10059630125761032,-0.491922527551651,-0.8648078441619873,0.0007810294628143311,-4.121661186218262e-05,0.021695971488952637
0427134022578,0.5116721160035278,0.1142819942971576,-0.051526140271420474,-0.14351321756839752,-0.04483405500650406,0.04865529388189316,0.09942879527807236,-0.4896358847618103,-0.8662393093109131,0.001124553382396698,-0.004052072763442993,0.013270258903503418
0427134022597,0.5080559500918806,0.11177925684551582,-0.04948344299996102,-0.21187281608581543,-0.09608351439237595,0.07527688145637512,0.0974573865532875,-0.48647966980934143,-0.8682394027709961,0.0018448084592819214,-0.010260194540023804,0.008144497871398926
0427134022617,0.5023775494928491,0.10692787041149208,-0.0466537058910476,-0.3318850100040436,-0.19959428906440735,0.09816966205835342,0.09353740513324738,-0.4815106689929962,-0.8714345693588257,-0.0007811412215232849,-0.005509465932846069,0.007692933082580566
0427134022637,0.49445384984554624,0.10026211526910342,-0.043306756740447844,-0.4370545446872711,-0.27111777663230896,0.10802068561315536,0.08810573816299438,-0.4745509922504425,-0.875807523727417,-0.0014223307371139526,-0.00567936897277832,0.017665982246398926
0427134022657,0.48576327139854464,0.0936913688508444,-0.04032309371019961,-0.4446498453617096,-0.25460776686668396,0.08251804858446121,0.08273188024759293,-0.46688348054885864,-0.880440354347229,0.006133638322353363,0.003101944923400879,0.02712070941925049
0427134022676,0.47809031106041355,0.08812411084633123,-0.03807216500964558,-0.379833847284317,-0.22044627368450165,0.061539147049188614,0.07814197987318039,-0.4600844383239746,-0.8844298720359802,0.0006528720259666443,0.009455651044845581,0.026425838470458984
0427134022696,0.47171590793090074,0.0846003147226257,-0.036523761866905674,-0.3075120151042938,-0.1147935539484024,0.03411666303873062,0.07527124136686325,-0.4544154703617096,-0.8876039981842041,0.005110576748847961,0.008440583944320679,0.027646899223327637
0427134022716,0.46672927249435336,0.08260386691515349,-0.035360112682554394,-0.24447551369667053,-0.06827518343925476,0.030686480924487114,0.07368508726358414,-0.44996780157089233,-0.8899997472763062,-0.003282487392425537,0.010035306215286255,0.021635115146636963
0427134022736,0.4612565441127707,0.08033048363411903,-0.03418690011206425,-0.30453115701675415,-0.10262979567050934,0.0324084609746933,0.07185812294483185,-0.4450736939907074,-0.8926061987876892,-0.0021116062998771667,0.0002887248992919922,0.00733494758605957
0427134022757,0.4536210587527383,0.0765230084414096,-0.03266353780946587,-0.4158576428890228,-0.18145984411239624,0.0419234074652195,0.06871683150529861,-0.4382232427597046,-0.8962356448173523,0.004539266228675842,-0.007599443197250366,0.0030146241188049316
0427134022776,0.4444296119055349,0.07067333343691436,-0.030834634704119308,-0.48336562514305115,-0.2780400216579437,0.054404422640800476,0.06375474482774734,-0.4299429655075073,-0.9006022214889526,0.006220832467079163,-0.009410262107849121,0.005794405937194824
0427134022796,0.43482833313458163,0.06390966874762527,-0.028781992566477746,-0.48613739013671875,-0.2917540371417999,0.06277046352624893,0.05792293697595596,-0.4212547242641449,-0.9050908088684082,0.010725248605012894,-0.008989304304122925,0.01650869846343994
0427134022816,0.4263623111804027,0.05796248356817967,-0.02688205263625253,-0.411460280418396,-0.2507517337799072,0.06079007312655449,0.05274391546845436,-0.41356152296066284,-0.9089471697807312,0.01260848343372345,0.0027416646480560303,0.023218512535095215
0427134022835,0.41976176567405016,0.053709319660484985,-0.025118167934707912,-0.3124375343322754,-0.15450914204120636,0.06237196922302246,0.04902302473783493,-0.4075429141521454,-0.9118692278862,0.009752906858921051,0.007037907838821411,0.022478580474853516
0427134022856,0.4146475280074766,0.05118364321244206,-0.02355490844257687,-0.24825695157051086,-0.07984182983636856,0.05990269035100937,0.04682580754160881,-0.4028673470020294,-0.9140597581863403,0.002581268548965454,0.002636939287185669,0.015254437923431396
0427134022875,0.4098500929659322,0.04906518643147368,-0.02214941780712732,-0.2511107921600342,-0.0863007977604866,0.05339045822620392,0.04498358070850372,-0.3984718322753906,-0.9160767793655396,0.007612604647874832,4.1961669921875e-05,0.007353246212005615
0427134022895,0.40383833402270897,0.04484320870522414,-0.020641091875662293,-0.3291808068752289,-0.21846628189086914,0.06084065139293671,0.04122217744588852,-0.39295080304145813,-0.9186350703239441,0.012304853647947311,-0.00346490740776062,-0.0018529891967773438
0427134022915,0.39639415115872606,0.0388273188750102,-0.018941909095351022,-0.3897682726383209,-0.27476805448532104,0.06484388560056686,0.035807620733976364,-0.3860945999622345,-0.9217639565467834,0.006626393646001816,-0.00952795147895813,0.008279800415039062
0427134022935,0.3894282621017975,0.03358936537223943,-0.01754933032703183,-0.33347567915916443,-0.21496541798114777,0.04603324458003044,0.03106856159865856,-0.3796595335006714,-0.9246044754981995,0.006894716992974281,0.0034765303134918213,0.025051653385162354
0427134022955,0.38489337195397416,0.03073933442457183,-0.016765219345270352,-0.19144554436206818,-0.09988497197628021,0.027312003076076508,0.028485910966992378,-0.37546032667160034,-0.9264006018638611,0.009614739567041397,0.007074534893035889,0.03490447998046875
0427134022975,0.3825112540771048,0.03031588023134416,-0.01613217529182628,-0.1018984243273735,0.015887001529335976,0.02832637168467045,0.028120649978518486,-0.37325140833854675,-0.9273039698600769,0.008423611521720886,0.0012645423412322998,0.027156054973602295
0427134022994,0.3806448014543857,0.030753560909534735,-0.01532552276558656,-0.09643648564815521,0.03869355469942093,0.03688683733344078,0.02854788303375244,-0.37151920795440674,-0.9279862642288208,0.0019996725022792816,0.0008444786071777344,0.005774199962615967
0427134023014,0.37864920770972155,0.030249897676318825,-0.014488457615971714,-0.10495010763406754,-0.030682876706123352,0.03472980856895447,0.028102854266762733,-0.3696657121181488,-0.9287397265434265,0.007174938917160034,0.0030954480171203613,-0.006335437297821045
0427134023034,0.3766589229290412,0.028861123417072254,-0.013701983351359082,-0.1017785519361496,-0.06090396270155907,0.034817807376384735,0.026834195479750633,-0.36781567335128784,-0.9295114874839783,0.010244159027934074,0.0010012388229370117,0.0008144378662109375
0427134023055,0.37461403460584897,0.027412656725112262,-0.012816150524949908,-0.10618208348751068,-0.05387687683105469,0.04003296047449112,0.025508364662528038,-0.36591336131095886,-0.9302992820739746,0.009342238306999207,-0.0051126182079315186,0.004119992256164551
0427134023074,0.3730790751874002,0.026267275956410988,-0.011792905301941305,-0.0666343942284584,-0.03206530958414078,0.046066951006650925,0.024457523599267006,-0.36448442935943604,-0.9308882355690002,0.0034198369830846786,-0.0027117133140563965,0.009500265121459961
0427134023094,0.3722803424560531,0.025695090183577032,-0.01059281085457782,-0.03716597706079483,-0.004338206723332405,0.057028286159038544,0.023932350799441338,-0.3637405037879944,-0.9311928153038025,-0.0072701964527368546,0.0001302659511566162,0.003823399543762207
0427134023114,0.37147366265844334,0.024821036910640658,-0.00949827567570457,-0.044463861733675,-0.03137863054871559,0.04680801182985306,0.023125704377889633,-0.36298897862434387,-0.9315063953399658,-0.004662998020648956,0.008564502000808716,-0.002317488193511963
0427134023134,0.3706089267657696,0.023796070990249888,-0.008734134247360201,-0.04299435764551163,-0.03842603787779808,0.031727492809295654,0.022178390994668007,-0.3621830940246582,-0.931843101978302,-0.004631198942661285,0.008613169193267822,0.007159173488616943
0427134023154,0.36994879432003897,0.022787420914140915,-0.008161570867963203,-0.03337014466524124,-0.03894064947962761,0.025318430736660957,0.02124391868710518,-0.3615677058696747,-0.9321038126945496,-0.004169732332229614,0.009828835725784302,0.014454245567321777
0427134023174,0.36940070862086116,0.022367210691345868,-0.0077273075519489545,-0.022420648485422134,-0.0015929900109767914,0.01928798481822014,0.020856667309999466,-0.3610566258430481,-0.9323106408119202,-0.0011121854186058044,0.008005499839782715,0.020306825637817383
0427134023193,0.3695160747333332,0.022511120667706178,-0.0072752852302020435,0.011867060326039791,0.0205954909324646,0.02270643413066864,0.02098989672958851,-0.3611642122268677,-0.9322659969329834,-0.003961486741900444,0.008525162935256958,0.02064359188079834
0427134023213,0.3700337958136703,0.02342352036619106,-0.006852178196704249,0.028891555964946747,0.06532173603773117,0.019831037148833275,0.02183610573410988,-0.36164695024490356,-0.9320593476295471,0.0007464848458766937,0.008306056261062622,0.022664785385131836
0427134023233,0.3705069404040202,0.024595801899634593,-0.006299692589302297,0.017221346497535706,0.06304813921451569,0.029651693999767303,0.02292451448738575,-0.36208802461624146,-0.9318619966506958,-0.000814974308013916,0.0032846033573150635,0.016379058361053467
0427134023253,0.37039227530934726,0.0251204369201861,-0.005591634305792929,-0.012741080485284328,0.030392464250326157,0.0337311215698719,0.02341444231569767,-0.3619811236858368,-0.9318913221359253,0.002509789541363716,-0.001445770263671875,0.005895137786865234
0427134023273,0.3699793818162147,0.025068119290235554,-0.005009419417589071,-0.019680993631482124,0.0026792222633957863,0.02396940439939499,0.023369433358311653,-0.3615961968898773,-0.9320418834686279,0.0022496264427900314,0.0027011632919311523,0.001681685447692871
0427134023292,0.3703144452614308,0.025082971632085022,-0.004526598249081575,0.0302189402282238,0.01423628069460392,0.02528081089258194,0.023380234837532043,-0.36190858483314514,-0.9319203495979309,0.00011784583330154419,0.00325775146484375,0.00864022970199585
0427134023312,0.3714845523723126,0.02560138034620191,-0.00391946503485604,0.06546370685100555,0.04595743492245674,0.03286290168762207,0.02385249175131321,-0.3629991114139557,-0.9314841628074646,-0.0008884761482477188,0.006850749254226685,0.007135868072509766
0427134023332,0.37334581505808345,0.02652570328093698,-0.003429142156312874,0.1017724871635437,0.05585749074816704,0.022924713790416718,0.024695510044693947,-0.3647328019142151,-0.9307847023010254,-0.0021282434463500977,0.010507047176361084,0.003979742527008057
0427134023352,0.37527133376381594,0.027235016537865076,-0.00318178725212255,0.09104365110397339,0.03788980469107628,0.010192040354013443,0.025336550548672676,-0.36652499437332153,-0.9300631880760193,-0.004218872636556625,0.006210952997207642,0.003868579864501953
0427134023372,0.37691820503693435,0.027802267735855347,-0.003135096437014259,0.08243203908205032,0.029308822005987167,0.004617977421730757,0.025847310200333595,-0.3680567443370819,-0.9294440150260925,-0.00042666494846343994,0.00023543834686279297,0.012007951736450195
0427134023392,0.3786739852814461,0.028327315434577203,-0.002942269170530205,0.09125348925590515,0.03238983452320099,0.012227429077029228,0.026316964998841286,-0.3696887195110321,-0.9287828803062439,0.000965239480137825,0.0007688701152801514,0.014337539672851562
0427134023412,0.3800094715620359,0.028408327406858974,-0.0026110470371615564,0.05501407012343407,0.0009169578552246094,0.018004843965172768,0.02637816034257412,-0.3709292709827423,-0.9282864332199097,0.003269154578447342,8.681416511535645e-05,0.013429045677185059
0427134023432,0.38015193824929494,0.028150520171218277,-0.0020975667432818206,-0.008326897397637367,-0.0024982476606965065,0.026096338406205177,0.026137353852391243,-0.3710615634918213,-0.9282403588294983,0.002518145367503166,-0.00029966235160827637,0.022965550422668457
0427134023452,0.379981040879126,0.028058516007873145,-0.0015135042943892137,-0.007233433425426483,0.007681535556912422,0.02610050141811371,0.02605373039841652,-0.3709028661251068,-0.9283061623573303,0.0007554478943347931,0.00845286250114441,0.021276533603668213
0427134023472,0.38071056218768523,0.028192283739942727,-0.0009671009359885855,0.05050100013613701,0.017890114337205887,0.026997817680239677,0.0261702723801136,-0.37158024311065674,-0.9280319213867188,-0.0014973264187574387,0.007497549057006836,0.01738595962524414
0427134023491,0.38209490392299067,0.028576357861930895,-0.0006091150557941805,0.07185054570436478,0.02972782775759697,0.014830218628048897,0.02651198022067547,-0.37286511063575745,-0.9275067448616028,0.00151788629591465,0.010934025049209595,0.0160062313079834
0427134023511,0.38333609942887575,0.029229356164637312,-0.00047042478243065666,0.05723296105861664,0.0364842526614666,0.006016354542225599,0.0271040890365839,-0.37401652336120605,-0.9270259141921997,-0.0013935677707195282,0.005249530076980591,0.015327095985412598
0427134023531,0.3843033787794873,0.029804722705662576,-0.00037334295023457574,0.04766025021672249,0.023448895663022995,0.006522754207253456,0.02762667089700699,-0.37491342425346375,-0.9266480803489685,-0.00040554627776145935,0.0005160272121429443,0.013255476951599121
0427134023551,0.38519355560534674,0.0307393719702715,9.030993344733731e-05,0.044954195618629456,0.07258433103561401,0.03210604563355446,0.028482479974627495,-0.3757385313510895,-0.9262879490852356,0.00031028129160404205,-0.0029312968254089355,0.02729964256286621
0427134023571,0.386305079641183,0.03326444616924057,0.0012042651447379635,0.061109960079193115,0.17350228130817413,0.05990901216864586,0.03080742433667183,-0.3767683506011963,-0.9257950782775879,0.003508973866701126,-0.0032289624214172363,0.030529916286468506
0427134023591,0.38827581575084924,0.03682059279907058,0.0027896138520641846,0.10910414159297943,0.22182129323482513,0.08210005611181259,0.034072086215019226,-0.3785931468009949,-0.9249358773231506,0.008010968565940857,0.0005642473697662354,0.015098512172698975
0427134023611,0.3913874325471576,0.04094796359008951,0.005108394920770733,0.1681637167930603,0.25623074173927307,0.12429846078157425,0.03784092888236046,-0.38147130608558655,-0.9236057996749878,-0.001724138855934143,-0.010961800813674927,-0.004175901412963867
0427134023630,0.3958278002779323,0.04380584652344302,0.007554247506821262,0.23382265865802765,0.16483184695243835,0.11819861829280853,0.0404057539999485,-0.3855721056461334,-0.9217925667762756,0.003996510058641434,0.011678487062454224,-0.0257188081741333
0427134023650,0.4006277679936008,0.04580776777559099,0.008917996053053925,0.23750925064086914,0.12539143860340118,0.057796377688646317,0.042165789753198624,-0.3899964690208435,-0.9198504090309143,0.006081640720367432,0.014317750930786133,-0.01852095127105713
0427134023671,0.40531507035901165,0.04861966510537074,0.009809358010303316,0.23475396633148193,0.1717739850282669,0.05459209531545639,0.04466281086206436,-0.39430832862854004,-0.9178922772407532,-0.0018322952091693878,-0.0022748708724975586,0.0063762664794921875
0427134023690,0.4100465664387984,0.05249808890368875,0.011505520869290882,0.23373928666114807,0.24983420968055725,0.10428030043840408,0.048124004155397415,-0.398652046918869,-0.9158387780189514,0.0012372136116027832,-0.01920190453529358,0.00780177116394043
0427134023710,0.41525229065636743,0.056840207736564695,0.014956239847717271,0.26662158966064453,0.2998073101043701,0.1994202584028244,0.051981616765260696,-0.4034208059310913,-0.9135368466377258,0.005832891911268234,-0.026289135217666626,-0.004998207092285156
0427134023730,0.42224303350065545,0.060723904120690265,0.020139677120766624,0.3692547380924225,0.30137860774993896,0.2711717486381531,0.05535661056637764,-0.4098075032234192,-0.9104907512664795,0.011079058051109314,-0.00941959023475647,-0.02043449878692627
0427134023750,0.43172625501634004,0.06498389022947716,0.02489566192399075,0.4943876564502716,0.31740227341651917,0.2330690324306488,0.05897974595427513,-0.4184392988681793,-0.9063277244567871,0.015085257589817047,0.021413803100585938,-0.017517507076263428
0427134023770,0.4427135376985425,0.07038914330956877,0.02742562177954773,0.5611078143119812,0.3244364261627197,0.12886983156204224,0.06355059146881104,-0.4283929765224457,-0.901354968547821,0.012085974216461182,0.03194752335548401,-0.019438624382019043
0427134023790,0.45659790286354096,0.07816920024414203,0.029115634256157173,0.7484928965568542,0.48329922556877136,0.1287240833044052,0.07008993625640869,-0.4408970773220062,-0.8948168158531189,-0.007209837436676025,0.012805163860321045,0.014046967029571533
0427134023809,0.4772776007323025,0.09240223796628971,0.03097106454109379,1.1415600776672363,0.8639288544654846,0.19155004620552063,0.08195942640304565,-0.4593627154827118,-0.8844594955444336,0.0018859878182411194,-0.006173849105834961,0.015835344791412354
0427134023829,0.508024493235784,0.11569968235374338,0.033273435300443924,1.651911735534668,1.349058747291565,0.2833574414253235,0.10086226463317871,-0.4864521920681,-0.867865800857544,-0.0045813024044036865,0.0185663104057312,0.011570453643798828
0427134023849,0.5431807607254453,0.14704363875590942,0.032600478167277465,1.7504568099975586,1.6081751585006714,0.15801024436950684,0.12542636692523956,-0.5168615579605103,-0.8468307852745056,-0.033174216747283936,0.060710251331329346,-0.03717494010925293
0427134023869,0.5731455976389161,0.18054048293353034,0.024723024749600964,1.4941203594207764,1.4124886989593506,-0.1678391844034195,0.1508672833442688,-0.5422776341438293,-0.826543390750885,-0.017203301191329956,0.07517111301422119,-0.09780699014663696
0427134023889,0.6008089283877682,0.21217704597621123,0.011773380174012794,1.4767446517944336,1.172402262687683,-0.2772689759731293,0.17371004819869995,-0.5653099417686462,-0.8063805103302002,-0.01296214759349823,0.03211808204650879,-0.1047866940498352
0427134023909,0.6299025519594327,0.24109563802099623,-0.0036471494492702062,1.599616527557373,0.9476218819618225,-0.2915862500667572,0.1929437816143036,-0.5890660285949707,-0.7847126126289368,-0.022690027952194214,0.02967524528503418,-0.08299791812896729
0427134023928,0.6611796134755175,0.27307395810390583,-0.02182909182937576,1.748948574066162,1.1291929483413696,-0.3168984651565552,0.21285997331142426,-0.6140483021736145,-0.7600231766700745,-0.02251085638999939,0.030198395252227783,-0.017859458923339844
0427134023948,0.6955799335332453,0.3161224310697402,-0.04476212053352567,1.9848179817199707,1.5573086738586426,-0.36345911026000977,0.23865972459316254,-0.6408307552337646,-0.7296420931816101,-0.023942768573760986,0.030018866062164307,0.009925365447998047
0427134023968,0.7326435770628641,0.36947976504549385,-0.07331924931924409,2.149049758911133,1.7741838693618774,-0.41956210136413574,0.268467515707016,-0.6688372492790222,-0.693240225315094,-0.017114877700805664,0.019695937633514404,-0.008090376853942871
0427134023988,0.7678198880501862,0.4292744581829949,-0.10873536412416678,2.132535934448242,1.7883347272872925,-0.5394913554191589,0.2994334101676941,-0.6945684552192688,-0.6541515588760376,-0.008622169494628906,0.007357120513916016,-0.007552802562713623
0427134024009,0.7996897008651405,0.49091262611668146,-0.14667028469473503,1.9993985891342163,1.7462151050567627,-0.47733432054519653,0.3285540044307709,-0.7171398401260376,-0.6146239638328552,-0.023735761642456055,-0.022164583206176758,-0.0140305757522583
0427134024028,0.8277884761531491,0.5539463529063432,-0.1873502158719113,1.9128801822662354,1.660979151725769,-0.5400246381759644,0.3558743894100189,-0.7364370822906494,-0.5753381848335266,0.02758711576461792,-0.009046852588653564,-0.0045653581619262695
0427134024048,0.8540685269734377,0.6234037169746436,-0.2316997754436058,1.9340952634811401,1.908094048500061,-0.4775560200214386,0.38351187109947205,-0.7539593577384949,-0.5333516597747803,-0.0037436485290527344,-0.014534294605255127,0.015001177787780762
0427134024068,0.8795871314481045,0.6995910156031017,-0.27879702784608523,1.9562710523605347,2.0497753620147705,-0.4020145833492279,0.41046953201293945,-0.7704757452011108,-0.48773130774497986,0.010649442672729492,-0.023560643196105957,0.003925681114196777
0427134024089,0.9024892554974663,0.7758917298277717,-0.32556012693644865,1.8004623651504517,1.988345742225647,-0.29381296038627625,0.433979332447052,-0.7848718166351318,-0.4423099756240845,-0.0009894967079162598,-0.024560511112213135,-0.01709771156311035
0427134024107,0.9208658516036728,0.8465583698844444,-0.36958185918782926,1.5616278648376465,1.7194874286651611,-0.2744561731815338,0.45324593782424927,-0.7961258888244629,-0.40093860030174255,0.022513985633850098,0.005919754505157471,-0.019178390502929688
0427134024127,0.9342867384996622,0.9076997384676806,-0.4098667567342807,1.299768328666687,1.381347417831421,-0.2271982878446579,0.4684344530105591,-0.8041753172874451,-0.3658841550350189,-0.006453514099121094,0.0173567533493042,-0.025714874267578125
0427134024147,0.945715299893455,0.9614823312507732,-0.4457239305811291,1.1709378957748413,1.2182021141052246,-0.16134804487228394,0.47985753417015076,-0.8109157085418701,-0.33489173650741577,0.0006319582462310791,0.032260894775390625,0.004708528518676758
0427134024167,0.9554273869818519,1.0177142429520862,-0.4828500641999799,1.1870827674865723,1.3574647903442383,-0.19710086286067963,0.491195946931839,-0.8165605068206787,-0.3032417297363281,0.0005849301815032959,0.04249858856201172,0.018407225608825684
0427134024187,0.9636941024404875,1.0796008690701748,-0.5232310694800725,1.2261278629302979,1.4636356830596924,-0.23030154407024384,0.5030407905578613,-0.8213046193122864,-0.2690889239311218,-0.01188570261001587,0.032151758670806885,-0.0071555376052856445
0427134024207,0.9692966596191772,1.1383891916781683,-0.5634746094978216,1.1188105344772339,1.2209689617156982,-0.26824042201042175,0.5137956738471985,-0.8244879245758057,-0.23713606595993042,-0.0015532970428466797,0.02441006898880005,-0.04501444101333618
0427134024227,0.9722454467520318,1.1860683984337164,-0.5986718430182159,0.9281582832336426,0.835896372795105,-0.25371870398521423,0.5222584009170532,-0.8261529803276062,-0.21146519482135773,0.003487884998321533,0.011670887470245361,-0.03931379318237305
0427134024246,0.9736915227879879,1.219437860233725,-0.6248887319737508,0.6482304334640503,0.5222286581993103,-0.18084238469600677,0.5279003381729126,-0.8269668817520142,-0.1935117542743683,0.006100714206695557,0.0003237724304199219,-0.01976168155670166
0427134024268,0.9742568125929527,1.2383192423503875,-0.6407063074713634,0.3557578921318054,0.1981385350227356,-0.10163923352956772,0.5310180187225342,-0.8272846341133118,-0.183357834815979,0.01065826416015625,-0.006225228309631348,-0.016762495040893555
0427134024286,0.9745803889162992,1.2401805673825217,-0.6454685428679733,0.06423895806074142,-0.19212433695793152,-0.004643796943128109,0.5311052799224854,-0.8274663686752319,-0.1822822391986847,0.018230855464935303,-0.012208044528961182,-0.012878954410552979
0427134024306,0.9750686592606118,1.2349133886013506,-0.6441863947049521,-0.03822694718837738,-0.19788195192813873,0.044827185571193695,0.5297562479972839,-0.8277404308319092,-0.18494392931461334,0.022952139377593994,-0.010255515575408936,0.00893259048461914
0427134024327,0.9763276917270592,1.232878225968247,-0.6434733288849372,0.017315613105893135,-0.021709688007831573,0.07434231042861938,0.5283951163291931,-0.8284462094306946,-0.18567603826522827,0.026052772998809814,-0.00642162561416626,0.008947491645812988
0427134024346,0.978502432727634,1.2340360898242526,-0.6444339917974247,0.07608549296855927,0.013006964698433876,0.10081151872873306,0.5269080400466919,-0.8296622633934021,-0.1844683438539505,0.039167165756225586,-0.008166015148162842,-0.024700164794921875
0427134024366,0.9820302486880566,1.233455075008942,-0.6453818368670733,0.08320146054029465,-0.09900905191898346,0.1825079768896103,0.5240353941917419,-0.8316265344619751,-0.1838044971227646,0.05491834878921509,-0.016760647296905518,-0.04243874549865723
0427134024385,0.9866017220222126,1.227976476636357,-0.6445683953517409,0.04687619209289551,-0.2965483069419861,0.2315589338541031,0.5194348096847534,-0.8341565728187561,-0.18539290130138397,0.06568360328674316,-0.005502581596374512,-0.051073670387268066
0427134024406,0.9916353967770084,1.218656680432224,-0.6421781284747685,0.017550013959407806,-0.38043344020843506,0.27368706464767456,0.5137366652488708,-0.8369221687316895,-0.1887751817703247,0.04077267646789551,-0.002340257167816162,-0.041389405727386475
0427134024425,0.9972770813537517,1.2075634149238639,-0.6369240494429219,-0.0575798824429512,-0.31570786237716675,0.33546894788742065,0.5071890950202942,-0.8399966955184937,-0.1927817165851593,0.03686803579330444,-0.015119373798370361,-0.019240260124206543
0427134024445,1.003245788535748,1.1938582281996246,-0.6268681602994234,-0.17462074756622314,-0.24838387966156006,0.3930378556251526,0.4998287856578827,-0.8432202339172363,-0.1978655606508255,0.027931928634643555,-0.006524443626403809,-0.018673062324523926
0427134024465,1.0092004207038434,1.1788099382903572,-0.6158972205584621,-0.1439257264137268,-0.31130388379096985,0.38953298330307007,0.49214592576026917,-0.8464062809944153,-0.20344270765781403,0.022614598274230957,0.026019394397735596,-0.0352056622505188
0427134024485,1.0157197646830094,1.1652035035163582,-0.6083809343074604,-0.027973521500825882,-0.37663912773132324,0.3828654885292053,0.48425132036209106,-0.8498600721359253,-0.20793822407722473,0.01395338773727417,0.028878450393676758,-0.04317677021026611
0427134024505,1.0230298010106238,1.1510183839756176,-0.6017700609739097,-0.020219219848513603,-0.4502832591533661,0.4178433120250702,0.47556719183921814,-0.8536897897720337,-0.21224859356880188,0.014306455850601196,0.006493628025054932,-0.03975123167037964
0427134024525,1.0298448687857313,1.1318281391027367,-0.5900047453365177,-0.17983177304267883,-0.45518121123313904,0.44916558265686035,0.46612969040870667,-0.8572190999984741,-0.2188575118780136,0.0340743362903595,0.004987597465515137,-0.005600094795227051
0427134024545,1.0358082504174637,1.1089538563704362,-0.5722743147787348,-0.3048996925354004,-0.35713326930999756,0.48086076974868774,0.45641735196113586,-0.8602747321128845,-0.22717973589897156,0.01665675640106201,-0.0013256072998046875,0.02068185806274414
0427134024564,1.0406504970881354,1.0866112820772558,-0.5523580247443344,-0.34482312202453613,-0.21928374469280243,0.4423620104789734,0.44753599166870117,-0.8627333641052246,-0.23537789285182953,0.026636958122253418,0.0189552903175354,0.02033531665802002
0427134024584,1.04531288885688,1.0682852878973854,-0.5332399532765695,-0.3027198910713196,-0.06250230222940445,0.4365553855895996,0.43961772322654724,-0.8650815486907959,-0.24159958958625793,0.00829508900642395,0.005846142768859863,0.005774855613708496
0427134024605,1.0490811794881723,1.050231722519001,-0.514383036077122,-0.3338431417942047,-0.09704150259494781,0.39144521951675415,0.4323534071445465,-0.866965651512146,-0.24787329137325287,0.02636280655860901,0.019403278827667236,-0.026800155639648438
0427134024624,1.0524473599840543,1.030011850176319,-0.49645586810991876,-0.2807983160018921,-0.29598790407180786,0.3726084232330322,0.42474889755249023,-0.8686383366584778,-0.25506022572517395,0.03582906723022461,0.0298040509223938,-0.05452519655227661
0427134024644,1.0569034635608985,1.0079099371545517,-0.4823658238291233,-0.1525423228740692,-0.5515055060386658,0.38245365023612976,0.4157305061817169,-0.8708375096321106,-0.2623167037963867,0.025316357612609863,0.020025134086608887,-0.04679560661315918
0427134024664,1.062343226832893,0.9850938538540885,-0.4688650476034961,-0.1357412189245224,-0.5407824516296387,0.42722925543785095,0.4056842029094696,-0.8734986186027527,-0.2691103518009186,0.02268284559249878,0.011181175708770752,-0.02561277151107788
0427134024684,1.0680349597664032,0.9617096836830429,-0.4516657952394084,-0.2001415640115738,-0.38471636176109314,0.48871591687202454,0.395196795463562,-0.8762553334236145,-0.2756735682487488,0.02230626344680786,-0.010873079299926758,0.007455229759216309
0427134024704,1.0731173031889956,0.9373120726493506,-0.4333698435549475,-0.20341509580612183,-0.4448398947715759,0.4580165147781372,0.38475996255874634,-0.8786929249763489,-0.28259265422821045,0.030271559953689575,0.011522650718688965,-0.005537867546081543
0427134024723,1.0773782376845664,0.9109595633145814,-0.41706283377326386,-0.17364974319934845,-0.6704561114311218,0.3954172432422638,0.3742186725139618,-0.8807190656661987,-0.290335088968277,0.027675211429595947,0.02664083242416382,-0.033531367778778076
0427134024743,1.0812847900597216,0.8825298507968984,-0.4024548489517144,-0.1394699513912201,-0.8110400438308716,0.36753249168395996,0.36315423250198364,-0.8825626373291016,-0.29866743087768555,0.02502235770225525,0.0181388258934021,-0.026861906051635742
0427134024763,1.0852531141252963,0.8547733192145683,-0.38828331140696376,-0.1233687475323677,-0.7349474430084229,0.3722287118434906,0.3520803153514862,-0.8844215869903564,-0.306329607963562,0.02630031108856201,0.014062106609344482,0.0024373531341552734
0427134024783,1.0896101411283434,0.8289270707916996,-0.3736771394933019,-0.10879777371883392,-0.6280249953269958,0.40203800797462463,0.3412022590637207,-0.8864465355873108,-0.31271976232528687,0.019554704427719116,0.018879473209381104,0.014458179473876953
0427134024803,1.092604541396256,0.7954254040210237,-0.3533721455641695,-0.30210521817207336,-0.8673812747001648,0.44922319054603577,0.3286390006542206,-0.8878284692764282,-0.3221135139465332,0.0052932798862457275,0.007138848304748535,-0.005017518997192383
0427134024823,1.0920104029590532,0.7469267741184241,-0.32253701415355074,-0.5795994400978088,-1.1117874383926392,0.5047373175621033,0.31299498677253723,-0.8875548839569092,-0.3380541205406189,0.019869565963745117,0.001066446304321289,0.00819242000579834
0427134024843,1.0886053155594504,0.694630720494732,-0.29118948743651674,-0.6148303747177124,-1.2697019577026367,0.40417227149009705,0.2968289852142334,-0.885981023311615,-0.3562726676464081,0.04734262824058533,0.0303613543510437,0.03285032510757446
0427134024862,1.0837594104880948,0.6441407471108886,-0.2626156650792371,-0.6119735240936279,-1.2546826601028442,0.3743410110473633,0.28104516863822937,-0.8837234973907471,-0.37422797083854675,0.020493686199188232,0.01192939281463623,0.06920814514160156
0427134024882,1.0781237817907827,0.5978303193219622,-0.23346008428491113,-0.6340839862823486,-0.944103479385376,0.4036802053451538,0.26621830463409424,-0.881071925163269,-0.3909476697444916,0.013134539127349854,-0.0022425055503845215,0.08473789691925049
0427134024903,1.0728806501457793,0.5600684208490193,-0.20516865348191102,-0.575337827205658,-0.5564568042755127,0.427623450756073,0.2537197172641754,-0.8785799145698547,-0.4046276807785034,0.006117373704910278,0.0058397650718688965,0.07539266347885132
0427134024922,1.068849639728432,0.529154012261886,-0.1800682765257559,-0.45068055391311646,-0.4369840919971466,0.4020312428474426,0.24287749826908112,-0.8766475915908813,-0.41533055901527405,0.010368019342422485,-0.006026029586791992,0.024480700492858887
0427134024942,1.0668646177311543,0.5015201803354622,-0.16008639143202844,-0.284724622964859,-0.5437839031219482,0.36638352274894714,0.23214520514011383,-0.8756908178329468,-0.42340782284736633,0.025891751050949097,-0.004785656929016113,-0.0038950443267822266
0427134024962,1.065886654139221,0.4715402025321753,-0.14243350827556528,-0.236647367477417,-0.7897099852561951,0.3526041507720947,0.21973790228366852,-0.8752181529998779,-0.43093886971473694,0.028182655572891235,-0.005074977874755859,-0.015391707420349121
0427134024982,1.0665090022524475,0.44148710716447953,-0.12778600775878882,-0.08305831998586655,-0.8779940009117126,0.3274518549442291,0.20645689964294434,-0.8755190372467041,-0.436854749917984,0.03532987833023071,-0.0077648162841796875,-0.0001068115234375
0427134025002,1.0700922752343407,0.4174359256166274,-0.11694585757337063,0.0891011655330658,-0.664657473564148,0.3077491521835327,0.19461816549301147,-0.8772448301315308,-0.4388227164745331,0.010364636778831482,-0.0028652548789978027,0.05635035037994385
0427134025022,1.0754449290529386,0.4031275030608922,-0.10804832767606709,0.19252289831638336,-0.21183885633945465,0.3033064603805542,0.18647481501102448,-0.8798017501831055,-0.43723687529563904,0.007537081837654114,-0.0056487321853637695,0.09405577182769775
0427134025042,1.0826737285285268,0.3964551534733282,-0.10065649984764409,0.28799059987068176,0.046072784811258316,0.30608871579170227,0.18109269440174103,-0.8832148313522339,-0.4325934648513794,0.0072583407163619995,0.0018840432167053223,0.07625937461853027
0427134025061,1.0910303811117017,0.39122790164824284,-0.09370726907556243,0.3352241516113281,0.010218246839940548,0.31564509868621826,0.17600828409194946,-0.8871029615402222,-0.4266960620880127,0.0014938116073608398,-0.0066939592361450195,0.028506815433502197
0427134025081,1.098637228684948,0.38031597565539416,-0.08574036327044178,0.259479820728302,-0.2694743275642395,0.3201393187046051,0.16883189976215363,-0.8905884027481079,-0.4223129153251648,0.0019412189722061157,-0.015354514122009277,-0.01791435480117798
0427134025101,1.1043894054262873,0.36018608234442506,-0.07499548846545082,0.15058664977550507,-0.6155478358268738,0.3383888900279999,0.1584889143705368,-0.8931897878646851,-0.42082440853118896,0.010285437107086182,-0.013668298721313477,-0.006265223026275635
0427134025121,1.1087260632454587,0.33450212684877245,-0.06328995643657606,0.10320895910263062,-0.8006680607795715,0.3151129186153412,0.14635638892650604,-0.8951314687728882,-0.4210931062698364,0.013049304485321045,-0.011345148086547852,0.007843196392059326
0427134025141,1.1143135549723258,0.3133699314727286,-0.0548944835983155,0.2556248903274536,-0.6254337430000305,0.2518910765647888,0.13588178157806396,-0.8976083993911743,-0.419327050447464,0.0009716451168060303,-0.004412591457366943,0.03575551509857178
0427134025161,1.124656521586222,0.3043062901387313,-0.05276509680049779,0.5625579357147217,-0.2668055593967438,0.1884249746799469,0.12928687036037445,-0.9021194577217102,-0.4116617739200592,-0.006929174065589905,0.0012733936309814453,0.046858370304107666
0427134025180,1.1390513640392845,0.3044869366321931,-0.054598947835994505,0.7350986003875732,-0.03584631532430649,0.18097712099552155,0.12545470893383026,-0.9082369208335876,-0.3992075026035309,-0.039885878562927246,-0.013574481010437012,0.033885061740875244
0427134025200,1.153396351898624,0.3055743337718313,-0.056788210790924665,0.6855080723762512,-0.0600125789642334,0.1706131249666214,0.12195642292499542,-0.9141460657119751,-0.38660529255867004,-0.030482366681098938,-0.021016716957092285,0.013287007808685303
0427134025220,1.1661840354109185,0.30325274222894266,-0.059489109070817996,0.6063677668571472,-0.314981073141098,0.13580244779586792,0.11755785346031189,-0.9192550778388977,-0.37569960951805115,-0.03182099759578705,-0.0015034675598144531,0.017289042472839355
0427134025240,1.1753465084268073,0.29498412171944915,-0.059620560197700956,0.3831906020641327,-0.4323432147502899,0.1366644948720932,0.11199391633272171,-0.9228233695030212,-0.3685842752456665,-0.02447168529033661,-0.010889887809753418,0.041957736015319824
0427134025260,1.1822963514424258,0.2850052701809939,-0.05740879181671996,0.3157252371311188,-0.3798236846923828,0.14193812012672424,0.10650457441806793,-0.9254783391952515,-0.3635200262069702,-0.01609831303358078,0.00011163949966430664,0.06936401128768921
0427134025280,1.1900834197685823,0.2809478558141209,-0.05673565760750733,0.4028676152229309,-0.09213030338287354,0.10756005346775055,0.1030273288488388,-0.9283999800682068,-0.3570137321949005,-0.014574140310287476,0.011990606784820557,0.09604525566101074
0427134025300,1.1988497437487502,0.2894097902104641,-0.060536632065169516,0.4401510953903198,0.34264254570007324,0.04810580238699913,0.10371799767017365,-0.9316216707229614,-0.34831565618515015,-0.04268486052751541,0.01710432767868042,0.11638456583023071
0427134025320,1.206991459396805,0.29650049232466985,-0.06367425910670906,0.4108337163925171,0.16664308309555054,0.07065553963184357,0.10396552085876465,-0.9345496892929077,-0.34030598402023315,-0.004083514213562012,-0.010012030601501465,0.0625373125076294
0427134025340,1.2145991062613108,0.29964357950977843,-0.06384915424825784,0.3354265093803406,0.13367505371570587,0.1241317018866539,0.1029329001903534,-0.9372296929359436,-0.3331746757030487,-0.01080235093832016,0.011527836322784424,0.09973263740539551
0427134025359,1.2181706029043888,0.29336981901489556,-0.05864304085183278,0.07090912759304047,-0.147275909781456,0.14278919994831085,0.09987208992242813,-0.9384691119194031,-0.33060771226882935,-0.005147479474544525,0.011165022850036621,0.08891069889068604
0427134025379,1.2173249008508051,0.2786806619963186,-0.047854746409077845,-0.13233718276023865,-0.2459283173084259,0.17566914856433868,0.09522341936826706,-0.938176691532135,-0.332801878452301,-0.008143380284309387,0.009072184562683105,0.09397357702255249
0427134025399,1.216351405533301,0.2621030455097987,-0.036381873035528416,-0.08435288071632385,-0.30369335412979126,0.18027429282665253,0.08993005007505417,-0.9378392696380615,-0.33521631360054016,-0.021145209670066833,0.03343886137008667,0.09287834167480469
0427134025419,1.2159868828975249,0.2476913350169803,-0.026768029607855463,-0.06284493207931519,-0.2656381130218506,0.1487288773059845,0.08517371863126755,-0.9377127289772034,-0.3368092179298401,-0.03869713842868805,0.03959888219833374,0.08766579627990723
0427134025439,1.2141853427108136,0.23535508499477434,-0.018734325840246528,-0.15177586674690247,-0.22645872831344604,0.10360614955425262,0.08140619844198227,-0.9370853304862976,-0.3394765555858612,-0.04251313954591751,0.03668254613876343,0.09353774785995483
0427134025459,1.2100564400777383,0.22733177784847708,-0.010025083826136117,-0.26549577713012695,0.10174816846847534,0.10918573290109634,0.07955113053321838,-0.9356359243392944,-0.34388503432273865,-0.04346567392349243,0.025040507316589355,0.12916558980941772
0427134025479,1.2053317189291841,0.22229537450024003,0.0006361446807455445,-0.2701137065887451,0.27873891592025757,0.1436382532119751,0.0787920132279396,-0.9339578151702881,-0.348589688539505,-0.035763755440711975,0.03489750623703003,0.11989367008209229
0427134025498,1.200627474254895,0.21652374858573595,0.010769452602451221,-0.28049609065055847,0.14793261885643005,0.11454278975725174,0.07772175967693329,-0.9322662949562073,-0.3533254563808441,-0.04094959795475006,0.04359716176986694,0.057856976985931396
0427134025518,1.1948086965842686,0.21127404401236716,0.018180803226943328,-0.3269865810871124,0.059896647930145264,0.05429134517908096,0.0770021378993988,-0.9301454424858093,-0.35902661085128784,-0.040931835770606995,0.031313955783843994,0.04172283411026001
0427134025539,1.1879824585924317,0.20690656895619308,0.02184448795407029,-0.36187827587127686,-0.07602956891059875,-0.023401539772748947,0.0767359659075737,-0.9276172518730164,-0.3655649721622467,-0.028168722987174988,0.038505494594573975,0.029981374740600586
0427134025558,1.1806637340789659,0.2029234540247644,0.02416485630685297,-0.37178492546081543,-0.09286485612392426,-0.029831307008862495,0.07664552330970764,-0.9248586297035217,-0.37250789999961853,-0.01605430245399475,0.019007503986358643,0.029692113399505615
0427134025578,1.1733219771182517,0.199609151912825,0.028923569240197747,-0.3887215852737427,0.1186700239777565,0.028855374082922935,0.07675478607416153,-0.9220415949821472,-0.37940478324890137,-0.011418111622333527,0.006775975227355957,0.060484230518341064
0427134025598,1.1653308988345632,0.1999485906944928,0.035359788793085004,-0.4364406168460846,0.36576035618782043,0.04484063759446144,0.07834458351135254,-0.9189189076423645,-0.38658803701400757,-0.014167584478855133,-0.0010924935340881348,0.05138665437698364
0427134025618,1.1556822386484968,0.19979840411353916,0.042455529585085784,-0.5346692204475403,0.2889518737792969,0.04440833628177643,0.0800425261259079,-0.9150702953338623,-0.3952714204788208,0.010928861796855927,-0.015332281589508057,0.016887784004211426
0427134025638,1.1436747365270323,0.19527779524223499,0.05144109833120956,-0.6620687246322632,0.14452046155929565,0.06874484568834305,0.08038120716810226,-0.9101619124412537,-0.406379371881485,0.03114374727010727,-0.030555546283721924,0.0051686763763427734
0427134025658,1.1279036549016472,0.18349438148009883,0.06288935186571948,-0.8946249485015869,-0.13829265534877777,0.09539276361465454,0.07819688320159912,-0.9035157561302185,-0.42136043310165405,0.0450926348567009,-0.04696744680404663,0.00211411714553833
0427134025677,1.1083686392977206,0.1662893226510581,0.07656293314835982,-1.0614749193191528,-0.2852914333343506,0.13489675521850586,0.07384394109249115,-0.8949720859527588,-0.4399683177471161,0.06366685777902603,-0.03475940227508545,0.028977394104003906
0427134025697,1.0870235353488342,0.14635265749148008,0.09256632568141902,-1.1400408744812012,-0.27363744378089905,0.2210102677345276,0.06782916188240051,-0.8852463960647583,-0.4601500928401947,0.06659947335720062,-0.03059971332550049,0.06638675928115845
0427134025717,1.0611321235910385,0.12641513313715974,0.11481425216757361,-1.4639654159545898,0.07901601493358612,0.40063735842704773,0.06151178851723671,-0.8729084134101868,-0.483990877866745,0.08088203519582748,-0.0759730339050293,0.11485552787780762
0427134025737,1.0268306297926604,0.10277335510769552,0.143811470000875,-1.9028221368789673,0.020527809858322144,0.5705921053886414,0.053095053881406784,-0.8556630611419678,-0.5148025751113892,0.12578271329402924,-0.09504979848861694,0.14975714683532715
0427134025757,0.9850730748977671,0.06961050016541986,0.17446855783193235,-2.2500977516174316,-0.4850834310054779,0.6616681814193726,0.038449764251708984,-0.8333125114440918,-0.5514633059501648,0.13238689303398132,-0.12574732303619385,0.13737690448760986
0427134025777,0.9393305631964274,0.03520554704895912,0.20364859171069266,-2.346914291381836,-0.5132544040679932,0.7343409657478333,0.02077854424715042,-0.8071631193161011,-0.5899627208709717,0.09801071882247925,-0.11553555727005005,0.12668269872665405
0427134025796,0.8943864489628711,0.0077434052820028266,0.23091729043298473,-2.2508068084716797,-0.2180243730545044,0.8032779097557068,0.004847303498536348,-0.7798251509666443,-0.6259787082672119,0.12765991687774658,-0.06879258155822754,0.19619238376617432
0427134025817,0.8463995390033361,-0.012967532464685246,0.2567389330657858,-2.505070209503174,-0.005454986356198788,0.854304313659668,-0.00859313365072012,-0.7488992810249329,-0.662628173828125,0.16194412112236023,-0.07809728384017944,0.2539607286453247
0427134025837,0.7835019089883528,-0.02685213108622144,0.2804896057358704,-3.3904001712799072,0.2580024003982544,0.895854651927948,-0.019021010026335716,-0.705764651298523,-0.7081909775733948,0.2217191457748413,-0.09947359561920166,0.24471479654312134
0427134025856,0.7054117085122946,-0.032184528335606546,0.30508510785093285,-4.010561466217041,0.6261057257652283,1.079537034034729,-0.02449928969144821,-0.6483473181724548,-0.7609503865242004,0.224145770072937,-0.13784903287887573,0.15822356939315796
0427134025876,0.628120220669026,-0.037961359661647695,0.33119930143564247,-3.7635414600372314,0.48145100474357605,1.1914331912994385,-0.0307084321975708,-0.5876247882843018,-0.8085505962371826,0.24175335466861725,-0.08457434177398682,0.09155166149139404
0427134025896,0.5601849960809521,-0.04081778688787189,0.35760273660741654,-3.2230820655822754,0.6718856692314148,1.2538365125656128,-0.03456946834921837,-0.5313429236412048,-0.8464512228965759,0.2487577646970749,0.011455833911895752,0.08877307176589966
0427134025916,0.503536245638427,-0.03381480514593047,0.3860456708050063,-2.6709980964660645,1.2273123264312744,1.3789312839508057,-0.02961212582886219,-0.48252588510513306,-0.8753809928894043,0.2546340823173523,0.07382875680923462,0.1179627776145935
0427134025936,0.4555191819276074,-0.01710674243059981,0.4181621294166608,-2.2971668243408203,1.686036467552185,1.5422189235687256,-0.01536166574805975,-0.4399286210536957,-0.8979013562202454,0.2564050555229187,0.07517600059509277,0.0315205454826355
0427134025956,0.41209763458043625,0.0015581628825961057,0.45273278206137624,-2.1250534057617188,1.617814540863037,1.5886789560317993,0.0014277170412242413,-0.40053224563598633,-0.9162815809249878,0.2658757269382477,0.06666257977485657,-0.08707702159881592
0427134025975,0.3747840674232059,0.015149990469473833,0.48496894166891086,-1.801909327507019,1.193040370941162,1.4497345685958862,0.014097840525209904,-0.36607158184051514,-0.930479884147644,0.2613993287086487,0.11206579208374023,-0.08478027582168579
0427134025995,0.3466786198475869,0.022610239883352794,0.5146528392264951,-1.3186776638031006,0.8058721423149109,1.3439944982528687,0.02126326411962509,-0.3397759199142456,-0.9402660131454468,0.3015054762363434,0.0898895263671875,-0.01397407054901123
0427134026015,0.3255171081466054,0.02548180996337303,0.5437840614996362,-1.0545158386230469,0.6016835570335388,1.3781455755233765,0.024141032248735428,-0.3197987675666809,-0.9471778869628906,0.3289468586444855,0.019542664289474487,0.024569392204284668
0427134026035,0.30286589446452367,0.027947828657887266,0.5760308323172475,-1.2408206462860107,0.6477959156036377,1.5648925304412842,0.026672327890992165,-0.29825687408447266,-0.9541128873825073,0.3865962028503418,-0.07417371869087219,0.010447442531585693
0427134026055,0.27724352119395745,0.029570602210548056,0.6146519924938871,-1.3607362508773804,0.627459704875946,1.9198366403579712,0.028437260538339615,-0.27370548248291016,-0.9613930583000183,0.3871200382709503,-0.12118655443191528,0.04397284984588623
0427134026075,0.2530050963679682,0.02752280226743242,0.6591991067126229,-1.2380917072296143,0.41398531198501587,2.1800143718719482,0.026643238961696625,-0.25031450390815735,-0.9677979350090027,0.3521251678466797,-0.06837564706802368,0.018013954162597656
0427134026095,0.23342602747181204,0.02091392921476068,0.7054284842860767,-0.9701176285743713,0.175653338432312,2.242152690887451,0.020345252007246017,-0.23131199181079865,-0.97266685962677,0.29215434193611145,0.01113225519657135,-0.01968902349472046
0427134026114,0.2182916259789003,0.008517707989366024,0.7509716619919408,-0.7503779530525208,-0.24175293743610382,2.2075464725494385,0.008315471932291985,-0.21656210720539093,-0.9762334227561951,0.23617593944072723,0.06004175543785095,-0.032891809940338135
0427134026134,0.20304549099669283,-0.013581504626907449,0.793304454108923,-0.7823591828346252,-0.7926079034805298,2.038395404815674,-0.0133020905777812,-0.20165318250656128,-0.979366660118103,0.21874669194221497,0.10941782593727112,-0.0588112473487854
0427134026155,0.18580725296284006,-0.03546866116495466,0.8326596441380076,-0.8223129510879517,-0.6294737458229065,1.9493811130523682,-0.034850846976041794,-0.18473994731903076,-0.9821693301200867,0.1569523811340332,0.12338802218437195,0.0031040310859680176
0427134026174,0.17068749970609134,-0.04444632629997798,0.8706768841469452,-0.6209183931350708,0.0641421228647232,1.9092453718185425,-0.04378602281212807,-0.1698599010705948,-0.9844949841499329,0.1192416176199913,0.16461427509784698,0.052915096282958984
0427134026194,0.1615533720692164,-0.0395216573466885,0.9098986471562184,-0.2915409505367279,0.7407161593437195,1.9842537641525269,-0.038996875286102295,-0.16085153818130493,-0.986207902431488,0.05428696423768997,0.2028621882200241,0.06678926944732666
0427134026214,0.15835030217848195,-0.025669115686113825,0.9525550685842739,-0.029489640146493912,1.1039222478866577,2.172437906265259,-0.025345180183649063,-0.15768936276435852,-0.9871634244918823,0.004654772579669952,0.18978175520896912,0.03379404544830322
0427134026234,0.15830618746318714,-0.009815321664547043,0.9946716456639646,0.03736209124326706,1.1224501132965088,2.0449538230895996,-0.00969243235886097,-0.1576458066701889,-0.9874481558799744,0.037707775831222534,0.218317911028862,-0.060739338397979736
0427134026254,0.1562399280708078,0.0013786574379814232,1.030497506173268,-0.15334899723529816,0.7414303421974182,1.68337082862854,0.0013618640368804336,-0.15560504794120789,-0.9878184199333191,0.03400798141956329,0.2764272689819336,-0.1672568917274475
0427134026274,0.14958685301610433,0.0036317131958399805,1.0597188869513348,-0.40058010816574097,0.1927560418844223,1.3887561559677124,0.003591148881241679,-0.14902961254119873,-0.9888262152671814,0.01966317743062973,0.2635498046875,-0.1839645504951477
0427134026293,0.13962215321567092,-0.000597611031992648,1.0863498581085018,-0.5245984196662903,-0.04795557260513306,1.3187006711959839,-0.0005917954258620739,-0.13916894793510437,-0.9902684688568115,-0.024020619690418243,0.2536584436893463,-0.1177944540977478
0427134026314,0.13068091212076274,-0.0024899166832471347,1.1143508887279838,-0.40983107686042786,0.1560540795326233,1.4293752908706665,-0.002468683524057269,-0.13030928373336792,-0.9914703369140625,-0.07603773474693298,0.24131962656974792,-0.026565730571746826
0427134026333,0.12594398602885604,0.00014068703683958213,1.1434735763766564,-0.17219167947769165,0.3606124818325043,1.4543557167053223,0.00013957273040432483,-0.1256113052368164,-0.992079496383667,-0.12533792853355408,0.25906720757484436,0.007139801979064941
0427134026353,0.12488027926873708,0.005582445707421391,1.1710185918674247,-0.03245879337191582,0.46834471821784973,1.3443278074264526,0.0055389441549777985,-0.12455594539642334,-0.9921971559524536,-0.14372265338897705,0.2485055923461914,-0.010412275791168213
0427134026373,0.1237583901142863,0.01091141844148529,1.196581221838936,-0.08581923693418503,0.3941672444343567,1.255835771560669,0.010827749967575073,-0.12344271689653397,-0.9922926425933838,-0.1611422896385193,0.23722997307777405,-0.09045594930648804
0427134026393,0.12229814121733801,0.010532495028158149,1.2204822575231191,-0.0794002041220665,0.030672453343868256,1.1722092628479004,0.010453633032739162,-0.12199350446462631,-0.9924758672714233,-0.14743198454380035,0.2303180992603302,-0.10464650392532349
0427134026413,0.12135859235027442,0.0029389845525358846,1.244288442217405,-0.053256742656230927,-0.3190356194972992,1.2017275094985962,0.002917364239692688,-0.12106091529130936,-0.9926407933235168,-0.16963495314121246,0.19438180327415466,-0.056584179401397705
0427134026433,0.11949015499529544,-0.005114834895045943,1.2693146566110118,-0.10743236541748047,-0.19741129875183105,1.264137625694275,-0.0050783418118953705,-0.1192060112953186,-0.9928565621376038,-0.20285306870937347,0.19109253585338593,0.056012511253356934
0427134026452,0.11672041249710709,-0.0065679326163119835,1.2940222457942006,-0.1401628851890564,0.1677887737751007,1.2198175191879272,-0.006523197051137686,-0.1164555698633194,-0.9931744933128357,-0.23549631237983704,0.19847387075424194,0.09412652254104614
0427134026473,0.11438401017958878,-0.0028895909233186213,1.3171136601433753,-0.08821205794811249,0.33273282647132874,1.1256746053695679,-0.0028707042802125216,-0.11413474380970001,-0.9934611320495605,-0.270826131105423,0.20399601757526398,-0.014000535011291504
0427134026492,0.11550450335639703,-0.002726059081454682,1.336101018388314,0.10420799255371094,0.03521241620182991,0.890938401222229,-0.002707891399040818,-0.11524784564971924,-0.993333101272583,-0.24503374099731445,0.2124181091785431,-0.04092305898666382
0427134026512,0.11840226176626005,-0.005445842802186925,1.3517234685811101,0.15100876986980438,-0.056675031781196594,0.7486868500709534,-0.005407687742263079,-0.1181258037686348,-0.9929839372634888,-0.25364065170288086,0.18546515703201294,0.006731927394866943
0427134026532,0.12027382075060578,-0.006775774214589574,1.3649093841554658,0.07720909267663956,0.04597171023488045,0.6308668851852417,-0.006726773455739021,-0.11998405307531357,-0.9927530288696289,-0.2616141438484192,0.1694096177816391,0.043351054191589355
0427134026552,0.12081564205414246,-0.005710010535690045,1.3762982268782864,0.021581271663308144,0.15401342511177063,0.5495491623878479,-0.005668357480317354,-0.12052194029092789,-0.9926944971084595,-0.2638322710990906,0.13932310044765472,0.030871808528900146
0427134026572,0.12089841606963796,-0.005073690390583984,1.3861342912073824,0.013008832931518555,0.06553390622138977,0.465026319026947,-0.0050366343930363655,-0.12060411274433136,-0.9926878809928894,-0.30171069502830505,0.1301584541797638,-0.019305646419525146
0427134026592,0.12202621166593637,-0.006619310291160807,1.3925490795427593,0.079583540558815,-0.07403553277254105,0.26314496994018555,-0.006570041179656982,-0.12172359973192215,-0.9925422668457031,-0.32668179273605347,0.14740648865699768,-0.036892056465148926
0427134026611,0.12528160226649765,-0.00894991937271897,1.3927659895248177,0.18679872155189514,-0.11718285083770752,-0.08360662311315536,-0.008879655972123146,-0.12495413422584534,-0.9921227693557739,-0.3298957943916321,0.17441028356552124,0.021709442138671875
0427134026632,0.12871529977276228,-0.009638964500281674,1.3859561572252301,0.16077487170696259,-0.04618404060602188,-0.42536461353302,-0.009559079073369503,-0.12836018204689026,-0.9916815757751465,-0.3265155553817749,0.14722251892089844,0.06242114305496216
0427134026651,0.1289357199150363,-0.00891091592018943,1.3752917873231307,-0.047406814992427826,-0.0119027653709054,-0.5545891523361206,-0.008836831897497177,-0.1285787671804428,-0.991659939289093,-0.2988259494304657,0.07703709602355957,0.07482016086578369
0427134026672,0.12504442449240116,-0.007869209932914973,1.3651233035222274,-0.23125018179416656,0.015640247613191605,-0.481203556060791,-0.0078076873905956745,-0.1247188076376915,-0.9921613931655884,-0.298359751701355,0.023341864347457886,0.05545473098754883
0427134026691,0.12058612601694808,-0.0054932704943163,1.3567529180588063,-0.19722376763820648,0.11599128693342209,-0.40726321935653687,-0.005453352350741625,-0.12029409408569336,-0.9927233457565308,-0.2989441156387329,0.0014762282371520996,0.037370383739471436
0427134026711,0.11897961131270118,-0.00397336955393439,1.3463455557904684,-0.031333308666944504,-0.01505907904356718,-0.5827834010124207,-0.00394526869058609,-0.1186990961432457,-0.9929224252700806,-0.28676509857177734,0.026797711849212646,0.004473209381103516
0427134026730,0.11830832306895527,-0.007222320593063613,1.3288081434487458,-0.05573401227593422,-0.3361158072948456,-0.9822089076042175,-0.0071717724204063416,-0.11803252249956131,-0.9929838180541992,-0.23883028328418732,0.03318069130182266,-0.026822209358215332
0427134026751,0.11298483420797105,-0.014569656031037392,1.3061759025584585,-0.36256104707717896,-0.5261566042900085,-1.1537284851074219,-0.014476248063147068,-0.11274459958076477,-0.9935185313224792,-0.22218728065490723,-0.037491247057914734,-0.0038265585899353027
0427134026770,0.10318661469468872,-0.022829437331223574,1.2848616731624931,-0.5420120358467102,-0.5300987362861633,-1.0122524499893188,-0.022706035524606705,-0.1030035987496376,-0.9944217801094055,-0.22212079167366028,-0.10744360089302063,0.03607815504074097
0427134026790,0.09510260516919723,-0.029900240202044754,1.267302869410351,-0.3737279176712036,-0.40454816818237305,-0.825360119342804,-0.02976069040596485,-0.0949593111872673,-0.9950361847877502,-0.20780280232429504,-0.11832617223262787,0.09884166717529297
0427134026810,0.09133440488968186,-0.03259083452562979,1.2518014012866299,-0.16925865411758423,-0.13956817984580994,-0.7571336030960083,-0.03244924917817116,-0.09120747447013855,-0.9953030943870544,-0.1803644448518753,-0.11180892586708069,0.1395137906074524
0427134026830,0.08844930517687703,-0.03330225616545119,1.236644225778065,-0.1901181936264038,-0.11248397082090378,-0.7608985304832458,-0.03316594287753105,-0.08833402395248413,-0.995538592338562,-0.15535573661327362,-0.11272930353879929,0.10672932863235474
0427134026850,0.08233274237368372,-0.03837807174909643,1.2196794750703044,-0.3946012854576111,-0.40893641114234924,-0.8706387281417847,-0.038238681852817535,-0.08223975449800491,-0.9958786964416504,-0.12704376876354218,-0.056796714663505554,0.0025009512901306152
0427134026870,0.07429264688205281,-0.04311789220553726,1.200673744570581,-0.44382238388061523,-0.23303474485874176,-0.9490755200386047,-0.04298563301563263,-0.0742243230342865,-0.9963147044181824,-0.13522091507911682,-0.0287863090634346,0.0443035364151001
0427134026890,0.06921641882549869,-0.038049775165717524,1.1831404230940819,-0.23485048115253448,0.3581964671611786,-0.8316556811332703,-0.03794950619339943,-0.06916116178035736,-0.9968834519386292,-0.07958818972110748,-0.030492611229419708,0.16657638549804688
0427134026909,0.06635682136263117,-0.024807996063314727,1.16821018430481,-0.17033913731575012,0.6729104518890381,-0.7243761420249939,-0.024750860407948494,-0.06630813330411911,-0.9974921941757202,9.315088391304016e-05,-0.007817737758159637,0.14281684160232544
0427134026929,0.058931441949684915,-0.009800400027634793,1.1526492304491758,-0.4780442416667938,0.7063917517662048,-0.8047694563865662,-0.009783230721950531,-0.058897338807582855,-0.9982160925865173,0.04414622485637665,0.05934101343154907,0.050813138484954834
0427134026949,0.04428100183286735,0.003370023494170028,1.1345119040148668,-0.8192760944366455,0.5825397372245789,-0.9377875924110413,0.003366713644936681,-0.044266533106565475,-0.9990140795707703,0.06305474042892456,0.06794905662536621,0.0005246996879577637
0427134026969,0.026985137509212054,0.014510948825509807,1.116574327900021,-0.8508154153823853,0.5112186670303345,-0.8912816047668457,0.014505156315863132,-0.026981862261891365,-0.9995306730270386,0.11079973727464676,0.06744871288537979,0.030750155448913574
0427134026989,0.01133859590187894,0.02056814758660803,1.1004634186444742,-0.7508552670478821,0.20025676488876343,-0.8053911328315735,0.020565375685691833,-0.011338353157043457,-0.9997242093086243,0.22163698077201843,0.07640206068754196,0.008238613605499268
0427134027009,-0.003565965386373823,0.021925290729928954,1.0866620154810764,-0.7324578762054443,0.04209449142217636,-0.6746518611907959,0.02192339487373829,0.0035659577697515488,-0.9997532963752747,0.21072693169116974,0.07584071159362793,0.0010808110237121582
0427134027029,-0.017446104777812572,0.024733569146300715,1.0748964425107126,-0.6629778742790222,0.20270979404449463,-0.5899056792259216,0.02472728304564953,0.017445219680666924,-0.9995419979095459,0.18642334640026093,0.09435558319091797,0.015090703964233398
0427134027049,-0.029738179498986782,0.03337800215428124,1.0660753248231811,-0.584551990032196,0.5198455452919006,-0.40976613759994507,0.03335705026984215,0.029733795672655106,-0.9990010857582092,0.20202435553073883,0.07036326080560684,0.05338340997695923
0427134027068,-0.040899792000111,0.04191301335643557,1.060787742145402,-0.5488529205322266,0.36922475695610046,-0.25872179865837097,0.04186570271849632,0.04088839143514633,-0.998286247253418,0.2872350215911865,0.079716257750988,0.04549688100814819
0427134027089,-0.053419858769278086,0.045161880816951334,1.0565211588620431,-0.6522940993309021,0.12227480858564377,-0.24327589571475983,0.045082129538059235,0.05339445546269417,-0.9975553154945374,0.34123897552490234,0.06313583254814148,0.009335041046142578
0427134027108,-0.06822928342576612,0.04683471996041359,1.0522379716572092,-0.7519572973251343,0.08106658607721329,-0.25195860862731934,0.046708669513463974,0.06817635893821716,-0.9965792894363403,0.3180517554283142,0.0658249706029892,-0.03224462270736694
0427134027128,-0.08369224303527849,0.04683273212445798,1.0478455925882417,-0.7695863842964172,-0.01089649647474289,-0.2579367160797119,0.046651750802993774,0.08359457552433014,-0.995407223701477,0.2951441705226898,0.09581658244132996,-0.040695130825042725
0427134027148,-0.09870325338661776,0.046897646732074624,1.0432129282590843,-0.7298271656036377,0.03703867644071579,-0.2672027349472046,0.046652279794216156,0.09854306280612946,-0.9940386414527893,0.28810936212539673,0.11542896181344986,-0.034678518772125244
0427134027168,-0.11144982793590082,0.048070604895723124,1.0404967592035028,-0.5940451622009277,0.06797409057617188,-0.12392943352460861,0.04775397479534149,0.11121924966573715,-0.9926478862762451,0.3177846372127533,0.08927904069423676,-0.042462706565856934
0427134027189,-0.11917832422368661,0.04925124949582224,1.0403896462140465,-0.3105050325393677,0.06284251809120178,0.0010892772115767002,0.048882126808166504,0.11889640241861343,-0.991702675819397,0.2880920171737671,0.09991228580474854,-0.054928362369537354
0427134027207,-0.12017184606179668,0.05169998782381199,1.0412094809168277,0.03567022830247879,0.140032097697258,0.04571600630879402,0.05130426958203316,0.11988281458616257,-0.9914615154266357,0.26690152287483215,0.09352423995733261,-0.05277383327484131
0427134027227,-0.11441538343496269,0.056092161380444566,1.0416767188140608,0.3698447048664093,0.24720977246761322,0.0317956767976284,0.05569619685411453,0.11416591703891754,-0.9918992519378662,0.2563602030277252,0.06735041737556458,-0.059004247188568115
0427134027247,-0.1038308010513828,0.05830241925346039,1.0408242968155526,0.5726649165153503,0.053345080465078354,-0.0294981449842453,0.057955581694841385,0.10364434123039246,-0.9929244518280029,0.2913627624511719,0.05206958204507828,-0.05062425136566162
0427134027267,-0.0936327261831667,0.05871594661664608,1.0395825467759017,0.47389528155326843,0.04048413410782814,-0.020190319046378136,0.058425165712833405,0.09349597245454788,-0.9939039349555969,0.3138423562049866,-0.0016093701124191284,-0.022728264331817627
0427134027287,-0.08698889086319506,0.05941574105387795,1.0407692170240774,0.2869120240211487,0.013524963520467281,0.11274521797895432,0.05915626138448715,0.08687922358512878,-0.994460940361023,0.32339566946029663,-0.07513166964054108,-0.0345766544342041
0427134027307,-0.08150683295608852,0.05838143395908409,1.0438686512180595,0.272541344165802,-0.08957592397928238,0.18302775919437408,0.05815456807613373,0.08141661435365677,-0.994982123374939,0.28277140855789185,-0.0880100205540657,-0.06742644309997559
0427134027327,-0.07310826645623426,0.057243385813606114,1.0472692783617938,0.47163257002830505,-0.05649887025356293,0.20000316202640533,0.05705930292606354,0.07304316014051437,-0.995695173740387,0.24282056093215942,-0.07067946344614029,-0.06759834289550781
0427134027346,-0.0583090189117159,0.05764450288976854,1.0498484466120288,0.831956684589386,0.021451327949762344,0.15426355600357056,0.05751467123627663,0.0582759827375412,-0.9966423511505127,0.24556952714920044,-0.013294212520122528,-0.06289750337600708
0427134027366,-0.03678393171083074,0.054102059389476105,1.0502933772115026,1.1465742588043213,-0.27531176805496216,0.06353317201137543,0.05403909087181091,0.03677563741803169,-0.997861385345459,0.35553625226020813,0.057339850813150406,-0.01707702875137329
0427134027386,-0.013271691106598392,0.04568825201099011,1.0501760018897546,1.1767189502716064,-0.4488293528556824,0.05180364102125168,0.0456683374941349,0.013271301053464413,-0.9988685250282288,0.38522371649742126,0.04507805034518242,-0.013903141021728516
0427134027406,0.009731675084847078,0.038710281400958016,1.051986342749031,1.1503996849060059,-0.2978431284427643,0.17921237647533417,0.03869878128170967,-0.00973152182996273,-0.9992035627365112,0.33186015486717224,-0.0010257260873913765,0.022457897663116455
0427134027426,0.032413469000477355,0.03569803900441197,1.0603179488681151,1.1155081987380981,-0.09019450843334198,0.5672598481178284,0.03567171096801758,-0.032407794147729874,-0.998837947845459,0.2414272129535675,-0.09446839243173599,0.009793758392333984
0427134027446,0.05652138387244755,0.03631654494117311,1.076684712942702,1.2210195064544678,0.1099875271320343,0.9577465653419495,0.036250580102205276,-0.056491293013095856,-0.9977447986602783,0.18106438219547272,-0.10297718644142151,0.032763659954071045
0427134027465,0.08563336351651564,0.03800374175009626,1.098030781535605,1.497239112854004,0.17554162442684174,1.1630581617355347,0.037855371832847595,-0.08552874624729156,-0.9956163167953491,0.09307955205440521,-0.07493098080158234,0.00942540168762207
0427134027485,0.12085564243748716,0.04005281652816123,1.1183339069148759,1.8127856254577637,0.21260663866996765,1.0420565605163574,0.03975003585219383,-0.12056165188550949,-0.9919096827507019,0.13072039186954498,0.00864081084728241,0.05486726760864258
0427134027506,0.16032147015794643,0.040458010383647734,1.1358731677675262,1.974517822265625,0.11900392174720764,0.9358533024787903,0.03992828354239464,-0.15963555872440338,-0.9863681793212891,0.16249404847621918,0.03636288642883301,0.05571913719177246
0427134027525,0.20129144670351137,0.042417881811606856,1.15507507430066,2.040034770965576,0.3488503098487854,1.08672034740448,0.041548967361450195,-0.19993487000465393,-0.9789278507232666,0.12661734223365784,-0.02125266194343567,0.031310856342315674
0427134027545,0.24310922458564976,0.047016562617712115,1.1793532873206323,2.043276786804199,0.5267032980918884,1.3507906198501587,0.04561719298362732,-0.24072158336639404,-0.9695216417312622,0.06696128100156784,-0.05956678092479706,-0.03978681564331055
0427134027565,0.28278263236936363,0.046995585882351094,1.2070955822005496,1.8846536874771118,0.28861644864082336,1.4560726881027222,0.04511243849992752,-0.27902883291244507,-0.9592224955558777,0.03198938071727753,-0.04187348484992981,-0.1053076982498169
0427134027585,0.314219106547979,0.03507717987132936,1.2347738561207544,1.371779203414917,-0.368500292301178,1.3707162141799927,0.033352892845869064,-0.30907389521598816,-0.950452983379364,0.09526282548904419,0.04391250014305115,-0.09138751029968262
0427134027605,0.33046064894394367,0.012679589897558642,1.261755181818524,0.5933912992477417,-0.7759852409362793,1.3010088205337524,0.011993213556706905,-0.32447877526283264,-0.9458169341087341,0.1380309760570526,0.07303541898727417,-0.02644360065460205
0427134027624,0.3351294010921591,-0.009526965152691724,1.2899359598234121,0.14943033456802368,-0.5839844942092896,1.3645635843276978,-0.008996822871267796,-0.3288913667201996,-0.9443249106407166,0.08977702260017395,0.05166071653366089,0.054751694202423096
0427134027644,0.33899993887325724,-0.025114632880389353,1.3218648794086063,0.2766660749912262,-0.13683445751667023,1.5659635066986084,-0.023682812228798866,-0.33254411816596985,-0.9427903294563293,0.009355276823043823,0.0383915901184082,0.05961048603057861
0427134027664,0.349653611388447,-0.034056267453308135,1.357270154501146,0.6917799115180969,0.23802319169044495,1.6787867546081543,-0.031989388167858124,-0.3425723910331726,-0.9389466643333435,-0.03192906081676483,0.0864449143409729,0.005138099193572998
0427134027684,0.36702682932636993,-0.03879105540161432,1.3924061496082747,0.9999125003814697,0.4126025140285492,1.596790075302124,-0.03619842976331711,-0.3588418662548065,-0.9326962232589722,-0.06019064784049988,0.11394518613815308,-0.06609964370727539
0427134027704,0.3870987943587594,-0.044291978446433775,1.4259205485761042,1.0813689231872559,0.30244922637939453,1.5025428533554077,-0.041001323610544205,-0.3775034546852112,-0.9251000285148621,-0.07069222629070282,0.147438645362854,-0.09302884340286255
0427134027724,0.40303986788781754,-0.05327869810772434,1.458624419513657,0.7811119556427002,0.15294396877288818,1.477317214012146,-0.04898644983768463,-0.39221644401550293,-0.9185676574707031,-0.06923769414424896,0.13607466220855713,-0.07269060611724854
0427134027743,0.4103214148861626,-0.06302575001779834,1.4918890133904488,0.35474008321762085,0.18288928270339966,1.5284199714660645,-0.05775589495897293,-0.39890408515930176,-0.9151719808578491,-0.08707937598228455,0.08810552954673767,-0.048513710498809814
0427134027763,0.41271826968891884,-0.071063649521944,1.5285428139369317,0.21732227504253387,0.3947044610977173,1.7467342615127563,-0.0650419369339943,-0.40110084414482117,-0.9137218594551086,-0.18088267743587494,0.057251811027526855,-0.07062429189682007
0427134027783,0.41849165663083593,-0.07804524113247895,1.5698940808492792,0.5336832404136658,0.5007360577583313,1.895093321800232,-0.07123779505491257,-0.4063827395439148,-0.9109216332435608,-0.2298624962568283,0.12985557317733765,-0.1316673755645752
0427134027803,0.43580722823083157,-0.0863062501526138,1.6102613708975542,1.1891521215438843,0.3866773843765259,1.7232282161712646,-0.07814206928014755,-0.4221423268318176,-0.9031553864479065,-0.24514438211917877,0.24565207958221436,-0.12502944469451904
0427134027824,0.46381593444003005,-0.09765652755929266,1.647142719565911,1.6541723012924194,0.1828889548778534,1.4610835313796997,-0.08720054477453232,-0.4473641514778137,-0.8900907039642334,-0.28543269634246826,0.2813265323638916,-0.15812921524047852
0427134027843,0.49593979048045567,-0.11123098763755424,1.6777874571801135,1.7633498907089233,-0.0227077417075634,1.1022794246673584,-0.09762848168611526,-0.4758584201335907,-0.8740866780281067,-0.3145705759525299,0.2841712236404419,-0.19044512510299683
0427134027863,0.5288749080008011,-0.12579017975632598,1.7019716916266343,1.7728242874145508,-0.16959519684314728,0.7821162343025208,-0.10831794887781143,-0.504562258720398,-0.8565536141395569,-0.3219168186187744,0.24973487854003906,-0.16725283861160278
0427134027883,0.5631142960620156,-0.14136760495782086,1.7216319082880773,1.8375284671783447,-0.3145635426044464,0.5576643347740173,-0.11914221197366714,-0.533822238445282,-0.8371612429618835,-0.3022117018699646,0.22299563884735107,-0.13792431354522705
0427134027903,0.6000230992574466,-0.15722082044335897,1.7368828256310296,1.9752839803695679,-0.382583886384964,0.28891363739967346,-0.1292239874601364,-0.5646615624427795,-0.8151432871818542,-0.2783358097076416,0.20560234785079956,-0.1661376953125
0427134027923,0.6448674256104472,-0.17007551894405507,1.7483851900834961,2.4412007331848145,-0.27752161026000977,0.04023238271474838,-0.13526654243469238,-0.601092517375946,-0.7876488566398621,-0.3065185844898224,0.1857292652130127,-0.19845449924468994
0427134027942,0.703387079032126,-0.17913971543803273,1.7590705501493926,3.1476290225982666,-0.0611536018550396,-0.1508971005678177,-0.13589239120483398,-0.6468045711517334,-0.7504513263702393,-0.3338162899017334,0.1571928858757019,-0.18784689903259277
0427134027962,0.7715585187548333,-0.18260475218977956,1.765050484393861,3.465538263320923,0.03524137660861015,-0.4789138436317444,-0.13016940653324127,-0.6972532868385315,-0.7049070000648499,-0.28962790966033936,0.1793527603149414,-0.2354367971420288
0427134027982,0.8399152351053824,-0.18424971829488274,1.7644596002457824,3.319718599319458,-0.15681222081184387,-0.6966845393180847,-0.1222967803478241,-0.7445865273475647,-0.6562274694442749,-0.19784554839134216,0.12320184707641602,-0.2462754249572754
0427134028002,0.9038619156519244,-0.1854962917956017,1.7575398059978071,3.067983865737915,-0.39964938163757324,-0.845365583896637,-0.11408742517232895,-0.7857216596603394,-0.6079683899879456,-0.11914095282554626,0.08726584911346436,-0.2630719542503357
0427134028022,0.9657343803827813,-0.18657813620711822,1.7441532833158746,2.9663572311401367,-0.6504913568496704,-1.0092271566390991,-0.10551341623067856,-0.8224668502807617,-0.5589411854743958,-0.05352690815925598,0.08388090133666992,-0.2611508369445801
0427134028042,1.030079895899703,-0.18262915850032033,1.7264612300898652,3.155111074447632,-0.5012769103050232,-1.0834490060806274,-0.0934867188334465,-0.8573400974273682,-0.5061898827552795,-0.01950278878211975,0.030528724193572998,-0.2293238639831543
0427134028062,1.0974480178848505,-0.17646402806795305,1.708731955399376,3.281648874282837,-0.4681464433670044,-1.005691647529602,-0.08002764731645584,-0.8900468945503235,-0.4487897455692291,0.07430717349052429,0.055286288261413574,-0.22739893198013306
0427134028082,1.1597038532165809,-0.1821448047647284,1.6995914396729597,2.9251270294189453,-0.7990045547485352,-0.6349071264266968,-0.0723852664232254,-0.9166848063468933,-0.39300045371055603,0.19891256093978882,0.0036013126373291016,-0.22596877813339233
0427134028102,1.2094330096679897,-0.21449702005460278,1.712397511554911,2.3761510848999023,-1.089775800704956,-0.13792328536510468,-0.07525520771741867,-0.9354156851768494,-0.34544774889945984,0.23655730485916138,-0.05730324983596802,-0.2284630537033081
0427134028122,1.2535450016585945,-0.2741346550761033,1.7499535281186307,2.322988986968994,-1.278086543083191,0.11741429567337036,-0.08445095270872116,-0.9500964879989624,-0.30030784010887146,0.22463509440422058,0.007762312889099121,-0.24970859289169312
0427134028142,1.2997908647313192,-0.36178820575429527,1.8101961566517482,2.540379285812378,-1.579604148864746,0.09877240657806396,-0.09475192427635193,-0.9635022282600403,-0.25037118792533875,0.20554786920547485,0.09595167636871338,-0.26145339012145996
0427134028161,1.3481165515340534,-0.48043051217951044,1.9009613541232315,2.7110841274261475,-1.483402132987976,-0.004153330344706774,-0.10206539928913116,-0.9753091335296631,-0.1958434283733368,0.16874834895133972,0.1472029685974121,-0.14528238773345947
0427134028181,1.3938773891762875,-0.6389559557960054,2.040540354241903,2.6721749305725098,-0.9606788158416748,-0.0503392368555069,-0.10495743900537491,-0.9843906164169312,-0.14127646386623383,0.14948460459709167,0.18741261959075928,-0.07082200050354004
0427134028201,1.4310825473802866,-0.875728835929431,2.264800192110336,2.5307462215423584,-0.7436818480491638,0.04677325859665871,-0.10695238411426544,-0.9902558922767639,-0.0891866609454155,0.1881617307662964,0.1887003779411316,-0.08250761032104492
0427134028221,1.4507711489505741,-1.208635789246025,2.5795196224874894,2.1498374938964844,-1.1782633066177368,0.2305016964673996,-0.11197009682655334,-0.9928056001663208,-0.042422279715538025,0.22453632950782776,0.18030959367752075,-0.1484990119934082
0427134028241,1.4515622624926825,-1.556600753025831,2.8965581641681,1.7844001054763794,-1.8199831247329712,0.3456391394138336,-0.11894041299819946,-0.992900013923645,-0.0016885407967492938,0.21650740504264832,0.2190546989440918,-0.1310519576072693
0427134028260,1.4404113374237535,-1.8567828870556897,-3.1244820929382433,1.6849708557128906,-2.063357353210449,0.31291529536247253,-0.12473486363887787,-0.9915119409561157,0.03667793050408363,0.16561558842658997,0.26074206829071045,-0.030945658683776855
0427134028281,1.423457351849299,-2.0958000077878722,-2.9209638148726067,1.6233078241348267,-1.7853542566299438,0.19133780896663666,-0.12703494727611542,-0.9891652464866638,0.07358181476593018,0.12807497382164001,0.2600281238555908,0.06754100322723389
0427134028300,1.4011166403281075,-2.2838236193487127,-2.7586260739004023,1.7378599643707275,-1.2640982866287231,0.16849812865257263,-0.12772800028324127,-0.9856389164924622,0.11045996844768524,0.12818819284439087,0.2149670124053955,0.1380995512008667
0427134028320,1.3727192161539614,-2.411248797534931,-2.650842877912973,1.6677783727645874,-1.0527708530426025,0.38899093866348267,-0.13128052651882172,-0.9804467558860779,0.14659419655799866,0.1458093523979187,0.14770179986953735,0.18819236755371094
0427134028340,1.3437951464355915,-2.4867770250613908,-2.5996904815191204,1.402530550956726,-1.38544499874115,0.537410318851471,-0.1370629370212555,-0.9743456840515137,0.17850664258003235,0.1238362193107605,0.1383507251739502,0.22076261043548584
0427134028360,1.318145788909419,-2.546640648824748,-2.5714766663310025,1.189743995666504,-1.6930429935455322,0.45488688349723816,-0.14010089635849,-0.9682532548904419,0.20701968669891357,0.05888110399246216,0.16009050607681274,0.3298218250274658
0427134028380,1.296440710678295,-2.59797864034958,-2.5511226282803205,1.029130220413208,-1.5422720909118652,0.3361087143421173,-0.1401320993900299,-0.9625999927520752,0.23187130689620972,0.016309767961502075,0.14750957489013672,0.45236968994140625
0427134028400,1.2781387847776984,-2.6318091780891493,-2.5403928282474038,0.8078711032867432,-1.0335136651992798,0.34213364124298096,-0.1407833993434906,-0.9574805498123169,0.2518151104450226,0.006112158298492432,0.10904979705810547,0.5761935710906982
0427134028420,1.2654711075783245,-2.6378240519252705,-2.547338108702537,0.40133213996887207,-0.5147038102149963,0.41577520966529846,-0.14511020481586456,-0.9537492394447327,0.26325953006744385,-0.010282427072525024,0.07892054319381714,0.6094878911972046
0427134028440,1.257599829199441,-2.630158885524547,-2.563862289474152,0.17520682513713837,-0.3974798023700714,0.4082692265510559,-0.15079323947429657,-0.9513536095619202,0.2686774730682373,-0.02879968285560608,0.08593970537185669,0.6131637096405029
0427134028459,1.2548563058742281,-2.6192163043554046,-2.582865714815143,-0.10102611780166626,-0.33131423592567444,0.29247426986694336,-0.1550259292125702,-0.950504720211029,0.26927241683006287,-0.061798423528671265,0.11109161376953125,0.6408741474151611
0427134028480,1.258293460198447,-2.6048994138861103,-2.600435076334668,-0.34489282965660095,-0.0356607586145401,0.095586858689785,-0.15719392895698547,-0.9515670537948608,0.2642165422439575,-0.07859709858894348,0.1414353847503662,0.6657974720001221
0427134028499,1.2675702943136424,-2.583801661504898,-2.615195165044989,-0.573870062828064,0.5000460147857666,-0.09138642996549606,-0.1580529808998108,-0.9543781876564026,0.2533401846885681,-0.066354900598526,0.1874903440475464,0.683875560760498
0427134028519,1.2806112995328265,-2.5525429893515494,-2.629028713345622,-0.6854950785636902,1.0331143140792847,-0.21420541405677795,-0.15896525979042053,-0.9581909775733948,0.2379077970981598,-0.05497506260871887,0.24812698364257812,0.6838053464889526
0427134028539,1.2973111583307102,-2.5095753790071,-2.6456327799822796,-0.8774209022521973,1.4609743356704712,-0.31715142726898193,-0.15956096351146698,-0.962835431098938,0.21791724860668182,-0.05686655640602112,0.3026982545852661,0.665725588798523
0427134028559,1.3204596681930794,-2.451844172100282,-2.6725781071711823,-1.2335516214370728,1.6157810688018799,-0.48475658893585205,-0.1576412171125412,-0.9688290953636169,0.1911003440618515,-0.06949800252914429,0.3786228895187378,0.6079180240631104
0427134028579,1.35245263656921,-2.376139606535917,-2.720232594502794,-1.679924488067627,1.4044591188430786,-0.7138022780418396,-0.150083526968956,-0.9762575626373291,0.1561930626630783,-0.08131301403045654,0.4507791996002197,0.5330543518066406
0427134028599,1.393255699636237,-2.265800183042811,-2.8095293964914805,-2.1659278869628906,1.0733280181884766,-0.9629735946655273,-0.13564510643482208,-0.9842810034751892,0.11309865117073059,-0.0879392921924591,0.5238205194473267,0.482521653175354
0427134028618,1.4396340889221593,-2.065368066083493,-2.990773551914611,-2.5562620162963867,1.0935629606246948,-1.1948776245117188,-0.1151149719953537,-0.9914105534553528,0.06207862123847008,-0.06302908062934875,0.5705773830413818,0.4930152893066406
0427134028639,1.4814981661426774,-1.6230586979306123,2.872571518937654,-2.8421366214752197,1.3058310747146606,-1.418792724609375,-0.08905820548534393,-0.9960155487060547,0.00465863524004817,-0.035055071115493774,0.597841739654541,0.45686960220336914
0427134028658,1.4906225578553676,-0.7781617747436691,2.0540746526136986,-3.065021276473999,1.5113269090652466,-1.6898967027664185,-0.056219059973955154,-0.9967877864837646,-0.057038649916648865,0.006323963403701782,0.643444299697876,0.4081401824951172
0427134028678,1.4464578423028023,-0.13447487438978975,1.437472253262047,-3.354907512664795,1.4850540161132812,-1.9202587604522705,-0.016627099364995956,-0.9922799468040466,-0.12289845198392868,0.026774555444717407,0.6617178916931152,0.32927143573760986
0427134028698,1.3732338150271115,0.13786262560337742,1.1867088233811902,-3.7388129234313965,1.1378525495529175,-2.0552706718444824,0.026974063366651535,-0.9805479049682617,-0.19441784918308258,0.025683462619781494,0.6748117208480835,0.21811401844024658
0427134028718,1.2882822508037308,0.25944236046024005,1.0787248057693344,-3.984483480453491,0.7379348874092102,-2.125094175338745,0.07151643186807632,-0.9603576064109802,-0.269441694021225,0.021118253469467163,0.6941565275192261,0.14421355724334717
0427134028738,1.1986783185624457,0.3229173127641869,1.0239276482246031,-4.0765581130981445,0.5484646558761597,-2.147334098815918,0.11537940800189972,-0.9315593242645264,-0.34479671716690063,-0.003214329481124878,0.7239974737167358,0.10844016075134277
0427134028758,1.1102684580621545,0.36993815096832566,0.9876603581581955,-3.8631479740142822,0.7748498916625977,-2.23513126373291,0.16068391501903534,-0.8958180546760559,-0.41435590386390686,-0.023464828729629517,0.7774277925491333,0.1364816427230835
0427134028778,1.0254858275693357,0.4225893220439557,0.9537471095247831,-3.564985990524292,1.2850855588912964,-2.454608678817749,0.21272428333759308,-0.8549662828445435,-0.47305506467819214,0.07486915588378906,0.829684317111969,0.1517707109451294
0427134028797,0.9360796139469717,0.4720920844322846,0.9310860050017732,-3.9016969203948975,1.6030430793762207,-2.530871868133545,0.2696440815925598,-0.8052396774291992,-0.5280919671058655,0.17557141184806824,0.803684413433075,-0.0016264915466308594
0427134028817,0.8365879545313976,0.5099224733246708,0.92684934595781,-4.464415550231934,1.7686724662780762,-2.45141339302063,0.32703328132629395,-0.7423613667488098,-0.5847639441490173,0.1891648769378662,0.7354947328567505,-0.21861976385116577
0427134028837,0.7428545551778745,0.5454178238315853,0.9247898682901005,-3.815777540206909,1.6941742897033691,-2.440459728240967,0.3820991814136505,-0.6763931512832642,-0.6296765208244324,0.17921817302703857,0.743743896484375,-0.3159028887748718
0427134028857,0.6682981267700051,0.5897048514568339,0.9082129749499033,-2.469177484512329,1.6810166835784912,-2.603426218032837,0.43648266792297363,-0.6196511387825012,-0.6523153781890869,0.19003435969352722,0.6895947456359863,-0.2937060594558716
0427134028877,0.5997046118695257,0.6262038231683619,0.8842169031346475,-2.349911689758301,0.8759441375732422,-2.835573673248291,0.48380470275878906,-0.5643986463546753,-0.6688700318336487,0.27483707666397095,0.5409422516822815,-0.3983060121536255
0427134028897,0.5146174407033282,0.6316545655350024,0.8742890695150867,-3.513953447341919,-0.2537393569946289,-2.8502113819122314,0.5140025019645691,-0.49220186471939087,-0.7025232315063477,0.32753986120224,0.40583187341690063,-0.37444812059402466
0427134028917,0.42126329344533814,0.6286223448151681,0.8783723960774005,-3.9496312141418457,0.10508742928504944,-2.5294370651245117,0.5366212725639343,-0.40891361236572266,-0.7381241321563721,0.3198435306549072,0.3898943066596985,-0.21572339534759521
0427134028937,0.3408241081368824,0.6477376492529825,0.8839885440163404,-3.162226915359497,1.407644510269165,-2.061973810195923,0.5686769485473633,-0.3342639207839966,-0.7515811920166016,0.23096352815628052,0.33805495500564575,-0.20035874843597412
0427134028957,0.28370113673718744,0.6908618364627496,0.8811805064567079,-1.8573728799819946,2.3142788410186768,-1.8706070184707642,0.61173015832901,-0.27991074323654175,-0.7398893237113953,0.1322452425956726,0.27781084179878235,-0.2306513786315918
0427134028976,0.2303430751450444,0.7371801027097556,0.8689281912559196,-1.6364473104476929,2.0390830039978027,-2.3685271739959717,0.6544486880302429,-0.22831155359745026,-0.7208125591278076,0.11505371332168579,0.2891530990600586,-0.37251603603363037
0427134028996,0.16131753509592653,0.7632743055698874,0.8588806332138302,-2.430598020553589,0.935844361782074,-2.839919090270996,0.6823157072067261,-0.16061876714229584,-0.7131948471069336,0.2961553931236267,0.24968764185905457,-0.3934546709060669
0427134029016,0.07960115052518893,0.7692984027565853,0.8601600116862177,-3.16927433013916,0.12362654507160187,-2.757152557373047,0.6934286952018738,-0.07951711118221283,-0.7161241173744202,0.4529346227645874,0.21449799835681915,-0.3048015832901001
0427134029036,-0.004984079253416928,0.7659420885703175,0.8775342189155035,-3.848849296569824,-0.19451186060905457,-2.1678290367126465,0.6932076811790466,0.004984058439731598,-0.720720648765564,0.49867260456085205,0.19147273898124695,-0.288211464881897
0427134029056,-0.09571375809349984,0.7630001773903559,0.9103309075282038,-4.6291985511779785,-0.24756404757499695,-1.9338992834091187,0.6879298090934753,0.09556768089532852,-0.719457745552063,0.4677414894104004,0.10500714182853699,-0.3947600722312927
0427134029075,-0.19417205397385548,0.7647132054246117,0.9534649439510445,-5.1711320877075195,-0.217190220952034,-1.8544420003890991,0.6793196201324463,0.19295421242713928,-0.708020806312561,0.5101498365402222,0.04884780943393707,-0.6168601512908936
0427134029095,-0.28683283142878535,0.7672418306460547,1.000069711065885,-4.811875820159912,-0.5254760384559631,-1.4836324453353882,0.66579270362854,0.2829158902168274,-0.6904192566871643,0.6232407093048096,0.062079429626464844,-0.8463456034660339
0427134029115,-0.35872136954328254,0.7649823774240901,1.0416424819782306,-3.6509056091308594,-0.8405513167381287,-0.9397745132446289,0.6484426856040955,0.35107728838920593,-0.6754752993583679,0.6966823935508728,0.07924380898475647,-1.0762709379196167
0427134029135,-0.39671310105569935,0.7617111840843699,1.0678159194816679,-1.7025758028030396,-0.5675386786460876,-0.2624100148677826,0.6365600824356079,0.3863888084888458,-0.6674540042877197,0.7074054479598999,-0.009489595890045166,-1.2518340349197388
0427134029156,-0.3914095690964389,0.754997445909831,1.069404740823599,0.7659069299697876,-0.3293397128582001,0.3861519992351532,0.6334601044654846,0.3814917504787445,-0.6731956005096436,0.684565544128418,0.032669514417648315,-1.3109878301620483
0427134029175,-0.354729759733165,0.7380704460398755,1.0503853715269968,2.2624154090881348,-0.5868187546730042,0.6427451968193054,0.6309695839881897,0.34733694791793823,-0.6937105655670166,0.6489853858947754,0.1482306718826294,-1.2237153053283691
0427134029194,-0.30346276362108715,0.7126994350073361,1.0231407084695918,2.945077419281006,-0.9081488847732544,0.7769972085952759,0.624001145362854,0.29882654547691345,-0.7220285534858704,0.5821624994277954,0.17321306467056274,-0.9627764821052551
0427134029215,-0.24200285054078613,0.6840569576084502,0.9939342111147231,3.378971576690674,-1.0767287015914917,0.9471944570541382,0.6135275959968567,0.23964759707450867,-0.752431333065033,0.5244143605232239,0.2115803211927414,-0.723770022392273
0427134029234,-0.17109002846106786,0.659205816320951,0.9669273377835226,3.705247640609741,-0.9131516218185425,1.2619588375091553,0.6035467982292175,0.170256569981575,-0.7789377570152283,0.3840961456298828,0.17274218797683716,-0.5754370093345642
0427134029254,-0.0887745586428693,0.6426128367790638,0.94015775240103,4.258237838745117,-0.5754767656326294,1.4984029531478882,0.5969291925430298,0.08865799754858017,-0.797380268573761,0.2903416156768799,0.2688993215560913,-0.45598089694976807
0427134029274,0.006456771820067401,0.6340494352845922,0.9099820837522242,4.92434549331665,-0.3029302954673767,1.6696044206619263,0.5923995971679688,-0.006456727162003517,-0.805618405342102,0.2439832091331482,0.3961358368396759,-0.39816683530807495
0427134029294,0.11318842028764058,0.6345083375697042,0.8759730110264455,5.449700832366943,0.003100194036960602,1.846108317375183,0.5889884233474731,-0.11294689029455185,-0.8002097606658936,0.11116403341293335,0.4184149503707886,-0.3093067407608032
0427134029314,0.22568337753917592,0.6453399222177875,0.8378415176341397,5.73034143447876,0.27949878573417664,1.8484654426574707,0.5862175822257996,-0.22377246618270874,-0.7786365151405334,0.048657774925231934,0.534263014793396,-0.20852023363113403
0427134029334,0.3382250114700272,0.6626398937894946,0.7948659559739807,5.758370876312256,0.24248982965946198,1.7794092893600464,0.5803461670875549,-0.33181318640708923,-0.7437058687210083,-0.033483147621154785,0.5472436547279358,-0.17970025539398193
0427134029354,0.44906770776628896,0.681787195897874,0.7473303593298143,5.728346824645996,-0.0288372989743948,1.7371009588241577,0.5677005648612976,-0.4341258704662323,-0.6994646191596985,-0.047540366649627686,0.6177592873573303,-0.1630752682685852
0427134029373,0.5579599661088867,0.7086179435488951,0.6924828993891837,5.792354106903076,0.0702766552567482,1.6174923181533813,0.5520850419998169,-0.5294566750526428,-0.6441100835800171,-0.0830262303352356,0.7033112049102783,-0.1487441062927246
0427134029393,0.6702646742317855,0.7625882963930767,0.6192290839027426,6.388742446899414,0.7951944470405579,1.5286736488342285,0.5413467288017273,-0.6211934089660645,-0.5666237473487854,-0.1641608476638794,0.6967374682426453,-0.10220855474472046
0427134029413,0.7853921931031067,0.8574006545434688,0.5104817281169386,7.113028526306152,1.1839663982391357,1.3115609884262085,0.5346778035163879,-0.7071025371551514,-0.4627370834350586,-0.218969464302063,0.7824958562850952,-0.16140449047088623
0427134029433,0.8889606903231833,0.9896392885825794,0.35762890389170837,7.238559246063232,0.7681581974029541,0.9517256617546082,0.5267549753189087,-0.7764171957969666,-0.3459849953651428,-0.23327845335006714,0.8326926231384277,-0.2202061414718628
0427134029453,0.964905444728301,1.138212797380666,0.1723833275082412,6.513852119445801,-0.26420360803604126,0.5176957845687866,0.5170360207557678,-0.8219950795173645,-0.23874226212501526,-0.24837011098861694,0.8073486089706421,-0.20693713426589966
0427134029473,1.004676708902535,1.2742674153646782,-0.01555547506587962,5.267807483673096,-1.2801893949508667,-0.17234094440937042,0.5129525661468506,-0.8439885973930359,-0.15672601759433746,-0.23453617095947266,0.7994964122772217,-0.20600837469100952
0427134029493,1.0170731084238769,1.3937024362948842,-0.19361107276799716,4.6881561279296875,-1.674601435661316,-0.603800356388092,0.5176333785057068,-0.8505725264549255,-0.0926402136683464,-0.22601819038391113,0.7007641792297363,-0.1884608268737793
0427134029513,1.01421485405879,1.522689074381055,-0.37904089621455395,4.952533721923828,-1.266339898109436,-0.6941134333610535,0.5276758074760437,-0.8490660190582275,-0.025404633954167366,-0.1382366418838501,0.6034934520721436,-0.07553720474243164
0427134029533,1.0023595389129756,1.6716637532372345,-0.5690849621958668,5.109530925750732,-0.4273294508457184,-0.391958087682724,0.5355793833732605,-0.8427435159683228,0.054206475615501404,-0.11997175216674805,0.4500153064727783,0.004334568977355957
0427134029552,0.9823158055317901,1.7913794769837263,-0.7292856517747142,4.256165504455566,-0.9174714088439941,-0.2573705315589905,0.5416478514671326,-0.8317850828170776,0.12145467847585678,-0.08995354175567627,0.39917051792144775,-0.08310294151306152
0427134029573,0.9621531956737456,1.8530749988493835,-0.8456963341502091,3.1868677139282227,-2.0110011100769043,-0.11087789386510849,0.5491265058517456,-0.8204245567321777,0.15925933420658112,-0.08020520210266113,0.31761932373046875,-0.007505178451538086
0427134029592,0.9456583507827494,1.8756407535088275,-0.9335562593014161,2.567736864089966,-2.559248447418213,-0.03740442544221878,0.5582273006439209,-0.8108823895454407,0.17564746737480164,-0.029751241207122803,0.3266623616218567,0.1580672264099121
0427134029612,0.9330958748499026,1.8920377202051053,-1.0106939490657603,2.313645124435425,-2.1673524379730225,0.16142429411411285,0.5648938417434692,-0.8034669160842896,0.18797841668128967,0.00990760326385498,0.22409307956695557,0.3672780990600586
0427134029632,0.9253259785899245,1.9111206844154953,-1.0767784244720875,1.8997694253921509,-1.5814706087112427,0.3047891855239868,0.567071795463562,-0.7988169193267822,0.20080117881298065,0.06189841032028198,0.21965646743774414,0.45540738105773926
0427134029652,0.9222920848340221,1.926252523858545,-1.1318134930502823,1.5373876094818115,-1.414337158203125,0.4656718075275421,0.5662379860877991,-0.7969881296157837,0.2102011889219284,0.1348758339881897,0.20649027824401855,0.502739429473877
0427134029672,0.9242716238671608,1.9368236568395663,-1.1800808265861396,1.2629799842834473,-1.4148393869400024,0.65907883644104,0.5625099539756775,-0.7981821894645691,0.21560998260974884,0.22454148530960083,0.17869269847869873,0.5642250776290894
0427134029692,0.9313616492442391,1.9367248319482924,-1.2177989348487133,0.8180569410324097,-1.5583419799804688,0.7591797113418579,0.5572327971458435,-0.8024332523345947,0.21352408826351166,0.29140323400497437,0.1698211431503296,0.6253015995025635
0427134029711,0.9429256030049895,1.9268709052220185,-1.2431571788232123,0.402310848236084,-1.4859893321990967,0.8295511603355408,0.550575315952301,-0.8092801570892334,0.20477430522441864,0.34804868698120117,0.14602845907211304,0.7102998495101929
0427134029731,0.9590128885958588,1.9136998209388048,-1.2583409117303308,0.05324443057179451,-1.207396388053894,0.9485483765602112,0.5408922433853149,-0.8186250329017639,0.19310234487056732,0.3914690613746643,0.13086819648742676,0.7441275119781494
0427134029751,0.9814061753556511,1.9013503122530853,-1.2645704476926132,-0.28596505522727966,-0.7595661282539368,1.1868934631347656,0.5257617235183716,-0.8312798142433167,0.18041196465492249,0.41937148571014404,0.12220680713653564,0.7446569204330444
0427134029771,1.0105214581806066,1.8912807973926786,-1.2629799834494477,-0.5826845765113831,-0.33793148398399353,1.4308547973632812,0.5043607354164124,-0.8471090793609619,0.16741102933883667,0.42745208740234375,0.13527441024780273,0.7044813632965088
0427134029791,1.0450200283761497,1.874798794122859,-1.2483936650460459,-1.00924551486969,-0.1634807139635086,1.5656293630599976,0.4788713753223419,-0.8649345636367798,0.15023496747016907,0.3889467418193817,0.1684046983718872,0.6387875080108643
0427134029811,1.0830947409387957,1.8467161460632975,-1.2133466549916043,-1.479941964149475,0.24914906919002533,1.5980032682418823,0.45087191462516785,-0.88341224193573,0.12766073644161224,0.3632662892341614,0.18625712394714355,0.6279913187026978
0427134029831,1.1238572301549439,1.808613420461221,-1.1547826714666773,-1.9101483821868896,0.8865594267845154,1.6668826341629028,0.42004287242889404,-0.9017742872238159,0.1018202006816864,0.3413463234901428,0.18443238735198975,0.600090742111206
0427134029850,1.1677766507098097,1.7557938378597098,-1.0689113169886355,-2.300818681716919,1.383880853652954,1.833565592765808,0.3855058550834656,-0.9198808670043945,0.07214251160621643,0.34973061084747314,0.18784499168395996,0.528740644454956
0427134029870,1.2125463372561314,1.6730000180199587,-0.9478108946809699,-2.6436691284179688,1.509358286857605,1.9163804054260254,0.3488065004348755,-0.9365118741989136,0.03577395901083946,0.35881245136260986,0.26822733879089355,0.4273083209991455
0427134029891,1.2527753768667373,1.5423636123075688,-0.7814494973978556,-2.904827356338501,1.2572904825210571,1.9058520793914795,0.3125610053539276,-0.9498561024665833,-0.008889352902770042,0.31960391998291016,0.3364884853363037,0.3194606304168701
0427134029910,1.2836774413146341,1.3502691994769742,-0.5581689735295844,-3.2138969898223877,0.9971262812614441,1.9662256240844727,0.27633219957351685,-0.9590637683868408,-0.061946213245391846,0.236509770154953,0.3479241132736206,0.279455304145813
0427134029930,1.2972736403257568,1.0905254214005877,-0.2676356237819818,-3.6646804809570312,1.0071234703063965,2.036738872528076,0.239565908908844,-0.9628252983093262,-0.12480311095714569,0.17893177270889282,0.36969107389450073,0.27383220195770264
0427134029950,1.2887222424312805,0.8158390606322469,0.046854037942743225,-3.768533229827881,1.5660799741744995,2.2072465419769287,0.2027209848165512,-0.9604802131652832,-0.19073998928070068,0.10129070281982422,0.4065765142440796,0.27441680431365967
0427134029970,1.2651109676200718,0.5901968108962105,0.3230141453474471,-3.376537799835205,2.061699628829956,2.326690435409546,0.16748447716236115,-0.9536409378051758,-0.2500362694263458,0.05721285939216614,0.468752384185791,0.2357531189918518
0427134029990,1.2340953651353639,0.42777066686161586,0.537228782328708,-2.8963370323181152,2.021805763244629,2.148169994354248,0.13705392181873322,-0.9438497424125671,-0.3006059229373932,0.0563330352306366,0.5517956018447876,0.20767998695373535
0427134030010,1.1934808745777084,0.3162753658294601,0.6918578775270613,-2.9290454387664795,1.5374337434768677,1.657286524772644,0.11459115147590637,-0.9296570420265198,-0.3501523733139038,0.015319675207138062,0.6308034062385559,0.14707428216934204
0427134030030,1.1381162915483969,0.2393891053608452,0.7979637932145699,-3.369030475616455,0.9025651216506958,1.118504524230957,0.0994211956858635,-0.9078452587127686,-0.4073481857776642,-0.1121492087841034,0.6556066274642944,0.1293201446533203
0427134030049,1.0716931480020082,0.19747124319721554,0.8640470828239344,-3.6255860328674316,0.8926808834075928,0.6150149703025818,0.09390422701835632,-0.8780121803283691,-0.4693364202976227,-0.19969546794891357,0.6579689979553223,0.17054259777069092
0427134030069,1.0030212274473813,0.19042438649478383,0.90160294042246,-3.5680177211761475,1.4233094453811646,0.1770305335521698,0.10178442299365997,-0.8430995345115662,-0.5280371904373169,-0.21180254220962524,0.6397794485092163,0.23127388954162598
0427134030090,0.92767516027569,0.20847806509943712,0.9268813862046745,-3.9969301223754883,2.1544809341430664,-0.09159135073423386,0.12411977350711823,-0.8002278804779053,-0.5867108106613159,-0.2219313681125641,0.6085340976715088,0.16798526048660278
0427134030109,0.8427266296730581,0.24049955252038327,0.9548691532761052,-4.451042175292969,2.8467304706573486,-0.06805789470672607,0.15849733352661133,-0.7464602589607239,-0.6462783217430115,-0.1868211030960083,0.5636000633239746,0.02050769329071045
0427134030129,0.758310729721461,0.2789026346575303,0.9839128436303103,-4.318204402923584,2.9932472705841064,-0.12700960040092468,0.1998680680990219,-0.6876960396766663,-0.6979447603225708,-0.11730718612670898,0.5838447213172913,-0.10067647695541382
0427134030148,0.6780380602205888,0.31366612144349015,1.0053971825566657,-4.004591464996338,2.2185089588165283,-0.5306745171546936,0.24029864370822906,-0.6272662878036499,-0.7408060431480408,-0.12719057500362396,0.6284246444702148,-0.29905569553375244
0427134030169,0.5992158017895491,0.3373343331381026,1.012167514641292,-3.8241939544677734,1.1445649862289429,-1.172563076019287,0.2733101546764374,-0.5639950633049011,-0.7792375683784485,-0.15046775341033936,0.5799835920333862,-0.42828691005706787
0427134030189,0.5193869088027318,0.3464397784482119,1.0058512462090414,-3.6356594562530518,-0.000709066167473793,-1.741145133972168,0.2947724759578705,-0.49634799361228943,-0.8165463209152222,-0.09034177660942078,0.49574869871139526,-0.44763320684432983
0427134030208,0.44279726080984744,0.3494340729748086,0.9960511164246983,-3.407905101776123,-0.00811683014035225,-1.6810194253921509,0.3093472123146057,-0.42846861481666565,-0.8489516973495483,-0.0045445263385772705,0.3363913595676422,-0.35056036710739136
0427134030228,0.3783988769097945,0.36061667132665054,0.9904462608396342,-2.785088539123535,0.6072426438331604,-1.235931634902954,0.32788968086242676,-0.36943307518959045,-0.8694869875907898,0.10467454791069031,0.1824600100517273,-0.3149031400680542
0427134030248,0.32871403749091105,0.37741532053192584,0.9928993572701413,-2.244941234588623,0.9590980410575867,-0.6505847573280334,0.348787784576416,-0.32282617688179016,-0.8798467516899109,0.17545071244239807,0.040377914905548096,-0.448341965675354
0427134030268,0.29036131477953014,0.39365184008097137,1.0007898698249753,-1.8401224613189697,0.8922638297080994,-0.29636669158935547,0.3675077259540558,-0.2862984240055084,-0.884856641292572,0.2718884348869324,0.02441820502281189,-0.6242554187774658
0427134030288,0.26084720623775043,0.40077320174330383,1.0085594634332808,-1.3972609043121338,0.29913660883903503,-0.22441606223583221,0.3769330084323883,-0.2578991949558258,-0.8896120190620422,0.2934383153915405,0.004639536142349243,-0.779534101486206
0427134030308,0.24056268588191337,0.3962972292994244,1.01300107174736,-0.8947583436965942,-0.32238447666168213,-0.18706302344799042,0.3748898208141327,-0.23824915289878845,-0.8959324359893799,0.22895324230194092,-0.062114864587783813,-0.8329821825027466
0427134030327,0.23154316271371195,0.3829672685363574,1.0144808591272945,-0.2956943213939667,-0.7362082600593567,-0.07253488898277283,0.36370232701301575,-0.22947977483272552,-0.9028065204620361,0.1333904266357422,-0.12479367852210999,-0.7629060745239258
0427134030348,0.23470144580813437,0.3672435379429357,1.0136431195331668,0.3141722083091736,-0.8046412467956543,0.04417378082871437,0.3492005169391632,-0.232552632689476,-0.9077324867248535,0.03187999129295349,-0.14596697688102722,-0.6429287195205688
0427134030367,0.24686211162303717,0.35566119130187324,1.0090115235876236,0.7472626566886902,-0.5664991140365601,-0.02125779539346695,0.33765390515327454,-0.24436241388320923,-0.9089977145195007,-0.05927997827529907,-0.1357133984565735,-0.5224312543869019
0427134030387,0.26332601176410003,0.35314351856438114,0.9979575656011634,1.0319430828094482,-0.15732604265213013,-0.29434484243392944,0.3339274823665619,-0.2602933347225189,-0.9059469103813171,-0.09760668873786926,-0.13194334506988525,-0.4340362548828125
0427134030407,0.28448408809199094,0.3630288271293073,0.9804447281528087,1.391729712486267,0.4060956835746765,-0.4495092034339905,0.34083428978919983,-0.28066229820251465,-0.8972517251968384,-0.0807252824306488,-0.14453285932540894,-0.38384801149368286
0427134030427,0.31282308532786157,0.3842628152238883,0.9594962741784684,1.7934532165527344,0.8609892725944519,-0.397754430770874,0.35668253898620605,-0.30774593353271484,-0.8820827603340149,-0.04791361093521118,-0.135576069355011,-0.3927611708641052
0427134030447,0.3476267760500377,0.40973988045078463,0.9372783719160773,2.0864808559417725,0.9035369157791138,-0.26403823494911194,0.3745417594909668,-0.3406675159931183,-0.8623596429824829,-0.016243159770965576,-0.11386898159980774,-0.42424923181533813
0427134030467,0.3855581166970235,0.4320555209456406,0.9137824118514628,2.2231335639953613,0.6189405918121338,-0.2256712168455124,0.38799819350242615,-0.376076340675354,-0.8414416313171387,-0.012365937232971191,-0.03634512424468994,-0.4196702837944031
0427134030487,0.4258928770101265,0.45254977578147093,0.8866166235892284,2.4295008182525635,0.4717862904071808,-0.2863795757293701,0.3981997072696686,-0.41313406825065613,-0.8189976811408997,-0.04083254933357239,0.0359765887260437,-0.35924428701400757
0427134030507,0.4709953882243479,0.4788197811679555,0.851619154900669,2.854099750518799,0.5901145339012146,-0.4375041127204895,0.41056615114212036,-0.45377352833747864,-0.7909014225006104,-0.021232008934020996,0.11589294672012329,-0.28794538974761963
0427134030526,0.5214847898927751,0.5133836282806558,0.8081974845921578,3.2403597831726074,0.7349441647529602,-0.49118730425834656,0.42584702372550964,-0.49816811084747314,-0.7553030848503113,0.0046090781688690186,0.14042171835899353,-0.27067285776138306
0427134030546,0.5780593084837511,0.5555283046347914,0.7581143135535542,3.6493418216705322,0.827458918094635,-0.34825411438941956,0.4417039752006531,-0.5463995933532715,-0.7115792632102966,0.006848722696304321,0.13726270198822021,-0.2559260129928589
0427134030566,0.6413051182453766,0.6038359756471304,0.7003396099887068,4.071122646331787,0.7236889600753784,-0.2352389395236969,0.4549904465675354,-0.5982417464256287,-0.659613847732544,0.002854466438293457,0.18295693397521973,-0.23678672313690186
0427134030586,0.706463429526223,0.6598221497787626,0.6297739687391425,4.35469913482666,0.5613371133804321,-0.3427800238132477,0.46626806259155273,-0.6491476893424988,-0.6010003089904785,0.010695874691009521,0.2446213960647583,-0.20925045013427734
0427134030606,0.7698831519119691,0.731217604543036,0.5414855293940507,4.6044745445251465,0.6444960236549377,-0.5256208181381226,0.47945818305015564,-0.6960513591766357,-0.5344458818435669,-0.0056989192962646484,0.26560139656066895,-0.13237380981445312
0427134030625,0.8271860451329737,0.8259366643396865,0.43553408533204396,4.667924404144287,1.055861234664917,-0.6465210318565369,0.4976818859577179,-0.7360293865203857,-0.4588829278945923,-0.03312402963638306,0.22385430335998535,-0.08823323249816895
0427134030645,0.8763028539385204,0.9423257639028724,0.31622853931198375,4.616330623626709,1.379249930381775,-0.5915310978889465,0.5177106261253357,-0.768377959728241,-0.37625905871391296,-0.029654741287231445,0.17492008209228516,-0.10585653781890869
0427134030665,0.9147324570548226,1.0685642198901164,0.18569806294585148,4.441115379333496,1.1426424980163574,-0.5567255616188049,0.5346734523773193,-0.7923994064331055,-0.2936449646949768,-0.04484790563583374,0.17341411113739014,-0.10976767539978027
0427134030685,0.9382698400825195,1.1893533704249386,0.05304144281289733,4.022165298461914,0.6072146892547607,-0.6773830056190491,0.5486948490142822,-0.8065364360809326,-0.22007429599761963,-0.027039825916290283,0.19780540466308594,-0.08254051208496094
0427134030706,0.9502114958899774,1.2982527634508938,-0.07193646906935387,3.5731449127197266,0.3218805193901062,-0.5854703187942505,0.5600471496582031,-0.8135384917259216,-0.15653231739997864,-0.03303635120391846,0.13806545734405518,0.010425806045532227
0427134030725,0.9550807472052784,1.389805801591233,-0.18245151375958316,3.05796480178833,-0.02273564413189888,-0.4417068362236023,0.5681092739105225,-0.816360354423523,-0.10396003723144531,0.02385801076889038,0.13980400562286377,-0.0038175582885742188
0427134030745,0.956611078241698,1.460527826413542,-0.2793633018111339,2.7359776496887207,-0.5604722499847412,-0.2903468906879425,0.572792649269104,-0.8172432780265808,-0.06341823190450668,0.06128859519958496,0.14686691761016846,-0.010684370994567871
0427134030764,0.9591632805022652,1.5160274114474634,-0.3665914084329931,2.4413416385650635,-0.852622389793396,0.00041329581290483475,0.5733444094657898,-0.8187114000320435,-0.03143288940191269,0.07445454597473145,0.09686696529388428,0.047402381896972656
0427134030785,0.9660000013637918,1.554678733541382,-0.4387679574755637,1.9649107456207275,-1.1074583530426025,0.3656567931175232,0.5685208439826965,-0.8226179480552673,-0.009163981303572655,0.09243142604827881,0.05559229850769043,0.09677296876907349
0427134030805,0.9784706626115561,1.5736490159600711,-0.49331297577388206,1.4089041948318481,-1.3596463203430176,0.7012795805931091,0.5582898259162903,-0.829644501209259,0.0015926315682008862,0.11271798610687256,0.06464868783950806,0.14578449726104736
0427134030824,0.99560199561216,1.583014515516737,-0.5361407444566704,1.1398407220840454,-1.3076750040054321,0.9109646081924438,0.5439574122428894,-0.8390865921974182,0.00664650509133935,0.09348148107528687,0.12272071838378906,0.1555774211883545
0427134030844,1.0141924263369178,1.592915427004803,-0.578713633266263,1.1260818243026733,-1.3099130392074585,0.9615296721458435,0.5281764268875122,-0.8490541577339172,0.011684693396091461,0.05474311113357544,0.1835918426513672,0.15380442142486572
0427134030864,1.0332336666694721,1.6019563314072733,-0.6197559083081284,1.0129542350769043,-1.31303870677948,1.0008304119110107,0.5117954015731812,-0.8589592576026917,0.015952710062265396,0.05365335941314697,0.18426543474197388,0.19670140743255615
0427134030884,1.0537675615726667,1.600259585349485,-0.6501544524615351,0.6285730600357056,-1.4551053047180176,1.075234293937683,0.4940849542617798,-0.8692917227745056,0.014561566524207592,0.05697503685951233,0.169924795627594,0.21747112274169922
0427134030904,1.0760064819324577,1.5782632559606642,-0.6618813487512382,0.14378952980041504,-1.6654632091522217,1.1460446119308472,0.47483354806900024,-0.8800685405731201,0.0035456144250929356,0.049646079540252686,0.1574321985244751,0.2508871555328369
0427134030924,1.0995059256647033,1.5414409943781802,-0.6576982053049357,-0.1376703381538391,-1.6609852313995361,1.1909116506576538,0.45384079217910767,-0.8909831643104553,-0.013326475396752357,0.035696566104888916,0.1616639494895935,0.27401554584503174
0427134030943,1.1229716601830628,1.5014406864267418,-0.6474034878782535,-0.17529630661010742,-1.4991151094436646,1.185662031173706,0.4319646954536438,-0.9013911485671997,-0.030007315799593925,0.03279277682304382,0.1650228500366211,0.29184091091156006
0427134030963,1.145486001420027,1.460579978644213,-0.6314971737463062,-0.2625800669193268,-1.2703617811203003,1.1495048999786377,0.4100998640060425,-0.9109107255935669,-0.045383624732494354,0.04597586393356323,0.14335370063781738,0.2969331741333008
0427134030983,1.1657548260203607,1.4110701881267216,-0.6031103800159078,-0.5012765526771545,-1.1579594612121582,1.065720796585083,0.38904115557670593,-0.9190860390663147,-0.06267394125461578,0.050097882747650146,0.12191170454025269,0.28094470500946045
0427134031003,1.182247559162703,1.347188408812323,-0.5582400312861671,-0.7588825225830078,-1.123403787612915,0.9538384675979614,0.369413822889328,-0.9254598021507263,-0.08400870114564896,0.04119160771369934,0.11116546392440796,0.2570831775665283
0427134031024,1.1946559137426662,1.2729773234761037,-0.5013490015646593,-0.9002713561058044,-1.066310167312622,0.853416919708252,0.3511628210544586,-0.9300892949104309,-0.10778877884149551,0.03675323724746704,0.1131858229637146,0.23548412322998047
0427134031043,1.20343065640102,1.1944160283217695,-0.4384530705183249,-0.9468806385993958,-0.9685773253440857,0.7853645086288452,0.33401739597320557,-0.9332767128944397,-0.13201089203357697,0.04089847207069397,0.11232984066009521,0.24615693092346191
0427134031063,1.210276583482151,1.1130454544793027,-0.36898780126370434,-1.0219058990478516,-0.7883495092391968,0.8362588882446289,0.31644341349601746,-0.9357135891914368,-0.15589605271816254,0.05926638841629028,0.07430058717727661,0.2709428071975708
0427134031083,1.2140139333639628,1.0149176922241723,-0.28124778078016266,-1.364015817642212,-0.8110603094100952,0.9416453838348389,0.29667535424232483,-0.9370254278182983,-0.18430154025554657,0.06778913736343384,0.042516112327575684,0.26411640644073486
0427134031102,1.2109657006166146,0.8993224686574375,-0.17379155921007278,-1.7098631858825684,-0.7225708961486816,0.9645388126373291,0.275673508644104,-0.9359564781188965,-0.2190655767917633,0.06689506769180298,0.06834858655929565,0.2466045618057251
0427134031123,1.2010914064000586,0.7895805390240012,-0.06819201104399127,-1.7475939989089966,-0.498127281665802,0.8545781970024109,0.2565726041793823,-0.9324340224266052,-0.25443536043167114,0.05598241090774536,0.09966182708740234,0.2408527135848999
0427134031142,1.184178773138346,0.6960715239034483,0.024949637390974666,-1.8254356384277344,-0.3110056221485138,0.6455115675926208,0.24177266657352448,-0.9261897206306458,-0.2893419563770294,0.05886553227901459,0.10705876350402832,0.19401878118515015
0427134031162,1.1606602958386074,0.6154546230295342,0.10662623682440522,-1.9310835599899292,-0.2401755154132843,0.5211894512176514,0.2302011251449585,-0.9170665740966797,-0.32557088136672974,0.06457802653312683,0.08694887161254883,0.15462607145309448
0427134031182,1.136479776961966,0.550313052010247,0.18010078302234048,-1.7999849319458008,0.21787600219249725,0.6299960613250732,0.22005411982536316,-0.907157838344574,-0.3586653470993042,0.08368216454982758,0.03071439266204834,0.11270904541015625
0427134031202,1.1166705364901475,0.5015803084013736,0.24458855976661886,-1.4769890308380127,0.5373952388763428,0.728142261505127,0.2109210044145584,-0.8986448645591736,-0.3846423029899597,0.08965690433979034,0.03247040510177612,0.08138984441757202
0427134031222,1.1001197134463354,0.465239673881997,0.30084573923878394,-1.288242220878601,0.7625023722648621,0.7279186844825745,0.20345216989517212,-0.891261637210846,-0.4052899479866028,0.08780276775360107,0.04593062400817871,0.062441349029541016
0427134031242,1.0834122851046286,0.43885798787562075,0.3506691817809305,-1.2564916610717773,0.935504138469696,0.6545441746711731,0.19899028539657593,-0.8835609555244446,-0.42393726110458374,0.0614878386259079,0.05553317070007324,0.023014187812805176
0427134031262,1.0659070645469018,0.4189674982659253,0.3939639953389289,-1.2219079732894897,0.8952043652534485,0.5452858209609985,0.1967819184064865,-0.8752280473709106,-0.4418742060661316,0.04543149471282959,0.07199537754058838,-0.024050772190093994
0427134031281,1.0474191432683426,0.4030366230999863,0.42846737000747515,-1.1897684335708618,0.6375303864479065,0.3623832166194916,0.19603140652179718,-0.8661361932754517,-0.459760457277298,0.04403048753738403,0.09262758493423462,-0.06993067264556885
0427134031301,1.0263146223559454,0.38677991671656214,0.4563958969659014,-1.286616563796997,0.30940648913383484,0.2219686657190323,0.19538430869579315,-0.8553958535194397,-0.4797111749649048,0.02552783489227295,0.07978135347366333,-0.11009907722473145
0427134031321,1.003708031126582,0.36904295301443385,0.48124859958823873,-1.2879666090011597,0.1388099640607834,0.1876794695854187,0.1937725841999054,-0.8434686660766602,-0.5010117888450623,0.010522782802581787,0.06033128499984741,-0.12876081466674805
0427134031341,0.9854099142553412,0.3567373108897555,0.49942943177829524,-0.9329538941383362,0.16245609521865845,0.12174831330776215,0.19295093417167664,-0.8334986567497253,-0.517735481262207,-0.004158481955528259,0.06053858995437622,-0.11994075775146484
0427134031361,0.9753125593070989,0.3530385434809406,0.5082724669684816,-0.4404296875,0.18684877455234528,0.0315692275762558,0.19393470883369446,-0.8278772234916687,-0.5263160467147827,-0.024826154112815857,0.0690619945526123,-0.10438668727874756
0427134031381,0.9707308411506265,0.35345831132064137,0.5096288559129605,-0.18002179265022278,0.038671575486660004,-0.07015907019376755,0.19546648859977722,-0.8252986669540405,-0.5297876000404358,-0.048284828662872314,0.05540543794631958,-0.06697952747344971
0427134031401,0.9669993293693918,0.3556759546193243,0.5080991591909301,-0.1630076766014099,0.06407226622104645,-0.11106309294700623,0.19771195948123932,-0.8231857419013977,-0.5322360992431641,-0.023812144994735718,0.02321714162826538,0.01313638687133789
0427134031421,0.9620273029195239,0.35796188711400956,0.50818074210684,-0.268095999956131,0.13573306798934937,-0.0754474624991417,0.20035965740680695,-0.8203525543212891,-0.5356096625328064,0.0015399307012557983,-0.010148882865905762,0.06938177347183228
0427134031441,0.9541554668418915,0.35726847062091216,0.5128164287009063,-0.47129544615745544,0.15658482909202576,0.013133271597325802,0.20224036276340485,-0.8158256411552429,-0.5417817234992981,0.02578224241733551,-0.033306777477264404,0.07695770263671875
0427134031460,0.9445532352115057,0.3539394888438847,0.520356028017095,-0.5310837030410767,0.13768616318702698,0.038982633501291275,0.2031414955854416,-0.8102351427078247,-0.5497749447822571,0.022912651300430298,-0.022539734840393066,0.07120281457901001
0427134031480,0.9367020271783612,0.3544276069589596,0.5249441884114683,-0.3727017641067505,0.24784336984157562,-0.03546641767024994,0.2056112289428711,-0.8056086301803589,-0.5556246042251587,0.006648838520050049,0.015192091464996338,0.08797788619995117
0427134031500,0.9309592459718409,0.361767140447242,0.5247273542479216,-0.24997559189796448,0.3983227014541626,-0.1269451230764389,0.21131764352321625,-0.8021930456161499,-0.5584183931350708,0.018779829144477844,0.024288594722747803,0.09811121225357056
0427134031520,0.9249927450203436,0.37101741079269496,0.5250849033572709,-0.3148522973060608,0.49685370922088623,-0.07957694679498672,0.2182055562734604,-0.7986164093017578,-0.5608905553817749,0.037480756640434265,-0.009378433227539062,0.08439385890960693
0427134031540,0.9170942642126548,0.37592370424806376,0.5296145609540354,-0.45956021547317505,0.38333991169929504,-0.002392816124483943,0.223263680934906,-0.7938379049301147,-0.5656630396842957,0.0662359893321991,-0.02436518669128418,0.02907729148864746
0427134031560,0.9074298948816543,0.3752838054050274,0.5348708763466926,-0.5292857885360718,0.10316593199968338,-0.03977537527680397,0.22570323944091797,-0.7879237532615662,-0.5729172229766846,0.060332536697387695,-0.01877415180206299,0.013840138912200928
0427134031580,0.8985903806227211,0.3735543397447667,0.5391208099826053,-0.4335528612136841,0.10931358486413956,-0.0371951088309288,0.22724498808383942,-0.7824499011039734,-0.5797688961029053,0.024885833263397217,-0.005083322525024414,0.05592465400695801
0427134031600,0.8933595171124917,0.38041560065979835,0.5414491075955634,-0.22670011222362518,0.5460861921310425,-0.02464568428695202,0.2327340841293335,-0.7791818976402283,-0.5819883942604065,0.010302320122718811,0.0027724504470825195,0.08016252517700195
0427134031619,0.8909034971337454,0.3918207916901216,0.5440616677105515,-0.13432544469833374,0.692421019077301,0.044047754257917404,0.24008652567863464,-0.7776401042938232,-0.5810630917549133,-0.02015213668346405,0.02639240026473999,0.032575786113739014
0427134031639,0.8878070271991678,0.4017761493970137,0.545999165028843,-0.18775507807731628,0.513695240020752,-0.02152991108596325,0.24679969251155853,-0.7756896018981934,-0.5808576345443726,-0.0015511512756347656,0.04649078845977783,0.0009219646453857422
0427134031659,0.8818868527836172,0.40634488926496676,0.5478261025388887,-0.33854565024375916,0.23263423144817352,-0.07293710112571716,0.2512615919113159,-0.7719396948814392,-0.5839320421218872,-0.008073091506958008,0.04605209827423096,0.01478433609008789
0427134031679,0.8736814905961465,0.4081508182321173,0.5509998489054837,-0.4441637098789215,0.2324744611978531,-0.07012434303760529,0.2548212707042694,-0.7666976451873779,-0.5892714262008667,-0.03532981872558594,0.0381549596786499,0.08175408840179443
0427134031699,0.8655179808778809,0.4139215539542721,0.5548601227976664,-0.4096291959285736,0.5116346478462219,-0.04223942756652832,0.2607262432575226,-0.7614311575889587,-0.5935018062591553,-0.08078575134277344,0.05107676982879639,0.14344918727874756
0427134031719,0.8609785586470539,0.43179870144194527,0.5547360548726639,-0.12588055431842804,1.0506349802017212,-0.13016735017299652,0.27273786067962646,-0.7584806680679321,-0.5918792486190796,-0.15560287237167358,0.10798662900924683,0.2593191862106323
0427134031739,0.8608479982510281,0.4737945325021828,0.5435128549257049,0.2514827251434326,1.9116557836532593,-0.4088515341281891,0.29739177227020264,-0.7583955526351929,-0.5799950957298279,-0.20511388778686523,0.16718190908432007,0.37211430072784424
0427134031758,0.8588874447612033,0.5378830527826387,0.5229691674999054,0.1858493983745575,2.572552442550659,-0.7138448357582092,0.3346879184246063,-0.7571161985397339,-0.5610338449478149,-0.12221753597259521,0.1660093069076538,0.2997162938117981
0427134031778,0.8437065411529454,0.597592280697381,0.5075529808977061,-0.5855584144592285,2.3110687732696533,-0.8783685564994812,0.3739948272705078,-0.747111976146698,-0.5495011210441589,-0.08272901177406311,0.1155996322631836,0.09482389688491821
0427134031798,0.8148641009821607,0.6328407136961769,0.5014001441114798,-1.1819230318069458,1.2468916177749634,-1.0668721199035645,0.4057069718837738,-0.7276324033737183,-0.5531302094459534,-0.03895661234855652,0.08897823095321655,0.016437172889709473
0427134031818,0.7818832759135677,0.6499074552164952,0.49442005582981075,-1.1507844924926758,0.4532133936882019,-1.2264289855957031,0.4293806552886963,-0.7046170234680176,-0.5649311542510986,-0.09304165840148926,0.1381821632385254,0.04853260517120361
0427134031838,0.7482565110684777,0.666905498265809,0.4767505921089714,-0.8799338340759277,0.17094126343727112,-1.6750247478485107,0.453326016664505,-0.6803620457649231,-0.5758497714996338,-0.07334747910499573,0.23851478099822998,0.07477128505706787
0427134031858,0.7085323129621908,0.6866476317454884,0.452223430631375,-1.0593674182891846,0.22158439457416534,-2.0432493686676025,0.4813680350780487,-0.6507200598716736,-0.5872377753257751,-0.1067919135093689,0.2385656237602234,0.02341538667678833
0427134031877,0.6664470822852377,0.7119597563836472,0.4388177112603065,-1.333896279335022,1.0597566366195679,-1.6183884143829346,0.513523519039154,-0.6181972026824951,-0.5950846076011658,0.014768779277801514,0.05084502696990967,-0.05896294116973877
